trialsType,trialsNum,trialNum,trials1.thisRepN,trials1.thisTrialN,trials1.thisN,trials1.thisIndex,trials2.thisRepN,trials2.thisTrialN,trials2.thisN,trials2.thisIndex,instr1.started,instr1.stopped,fix.started,fix.stopped,trial1Mouse.x,trial1Mouse.y,trial1Mouse.leftButton,trial1Mouse.midButton,trial1Mouse.rightButton,trial1Mouse.time,trial1Mouse.started,trial1Mouse.stopped,step,targetangle_deg,trial1Target.started,trial1Target.stopped,trial1Home.started,trial1Home.stopped,trial1Cursor.started,trial1Cursor.stopped,trial1Num.started,trial1Num.stopped,trial2Mouse.x,trial2Mouse.y,trial2Mouse.leftButton,trial2Mouse.midButton,trial2Mouse.rightButton,trial2Mouse.time,trial2Mouse.started,trial2Mouse.stopped,trial2Target.started,trial2Target.stopped,trial2Home.started,trial2Home.stopped,trial2Cursor.started,trial2Cursor.stopped,trial2Num.started,trial2Num.stopped,trial2Text.started,trial2Text.stopped,participant,session,taskVer,date,expName,psychopyVersion,frameRate,
1,1,1,0,0,0,0,,,,,13.810928800143301,None,14.201807399978861,None,"[-0.14583333333333334, -0.14583333333333334, -0.14583333333333334, -0.14583333333333334, -0.14583333333333334, -0.14583333333333334, -0.14583333333333334, -0.14583333333333334, -0.14583333333333334, -0.14583333333333334, -0.14583333333333334, -0.14583333333333334, -0.14583333333333334, -0.14583333333333334, -0.14583333333333334, -0.14583333333333334, -0.14583333333333334, -0.14583333333333334, -0.14583333333333334, -0.14583333333333334, -0.14583333333333334, -0.14583333333333334, -0.14583333333333334, -0.14583333333333334, -0.14583333333333334, -0.14583333333333334]","[0.09765625, 0.09765625, 0.09765625, 0.09765625, 0.09765625, 0.09765625, 0.09765625, 0.09765625, 0.09765625, 0.09765625, 0.09765625, 0.09765625, 0.09765625, 0.09765625, 0.09765625, 0.09765625, 0.09765625, 0.09765625, 0.09765625, 0.09765625, 0.09765625, 0.09765625, 0.09765625, 0.09765625, 0.09765625, 0.09765625]","[0, 0, 0, 0, 0, 0, 0, 0, 0, 0, 0, 0, 0, 0, 0, 0, 0, 0, 0, 0, 0, 0, 0, 0, 0, 0]","[0, 0, 0, 0, 0, 0, 0, 0, 0, 0, 0, 0, 0, 0, 0, 0, 0, 0, 0, 0, 0, 0, 0, 0, 0, 0]","[0, 0, 0, 0, 0, 0, 0, 0, 0, 0, 0, 0, 0, 0, 0, 0, 0, 0, 0, 0, 0, 0, 0, 0, 0, 0]","[0.010102499974891543, 0.022518099984154105, 0.043865400133654475, 0.061180700082331896, 0.07784590008668602, 0.09514470002613962, 0.1111735999584198, 0.12785589997656643, 0.14451809995807707, 0.16117990016937256, 0.17775660008192062, 0.19448320008814335, 0.21114250016398728, 0.22783570014871657, 0.24454390001483262, 0.2610663999803364, 0.27779660001397133, 0.2944747000001371, 0.31106560002081096, 0.3277885999996215, 0.34446950000710785, 0.36105700000189245, 0.37776609999127686, 0.3943884000182152, 0.41111910017207265, 0.42835310008376837]",15.277419400168583,None,"[1, 1, 1, 1, 1, 1, 1, 1, 1, 1, 1, 1, 1, 1, 1, 1, 1, 1, 1, 1, 1, 1, 1, 1, 1, 1]",40,15.277419400168583,None,15.277419400168583,None,15.277419400168583,None,15.277419400168583,None,,,,,,,,,,,,,,,,,,,a,001,5,2020_Jun_26_1640,pAdaptTest5,2020.1.3,60.03723511115066,
1,1,2,0,1,1,1,,,,,,,,,"[-0.14583333333333334, -0.14583333333333334, -0.14583333333333334, -0.14583333333333334, -0.14583333333333334, -0.14583333333333334, -0.14583333333333334, -0.14583333333333334, -0.14583333333333334, -0.14583333333333334, -0.14583333333333334, -0.14583333333333334, -0.14583333333333334, -0.14583333333333334, -0.14583333333333334, -0.14583333333333334, -0.14583333333333334]","[0.09765625, 0.09765625, 0.09765625, 0.09765625, 0.09765625, 0.09765625, 0.09765625, 0.09765625, 0.09765625, 0.09765625, 0.09765625, 0.09765625, 0.09765625, 0.09765625, 0.09765625, 0.09765625, 0.09765625]","[0, 0, 0, 0, 0, 0, 0, 0, 0, 0, 0, 0, 0, 0, 0, 0, 0]","[0, 0, 0, 0, 0, 0, 0, 0, 0, 0, 0, 0, 0, 0, 0, 0, 0]","[0, 0, 0, 0, 0, 0, 0, 0, 0, 0, 0, 0, 0, 0, 0, 0, 0]","[0.004698699805885553, 0.015522999921813607, 0.03907289984636009, 0.05652739992365241, 0.07360429991967976, 0.09035159996710718, 0.10665129986591637, 0.12318999995477498, 0.1397748999297619, 0.156542900018394, 0.17323029995895922, 0.18970649992115796, 0.2069364998023957, 0.22335959994234145, 0.23978509986773133, 0.2563598998822272, 0.27282529999502003]",15.708341400139034,None,"[1, 1, 1, 1, 1, 1, 1, 1, 1, 1, 1, 1, 1, 1, 1, 1, 1]",50,15.708341400139034,None,15.708341400139034,None,15.708341400139034,None,15.708341400139034,None,,,,,,,,,,,,,,,,,,,a,001,5,2020_Jun_26_1640,pAdaptTest5,2020.1.3,60.03723511115066,
1,1,3,0,2,2,2,,,,,,,,,"[-0.14583333333333334, -0.14583333333333334, -0.14583333333333334, -0.14583333333333334, -0.14583333333333334, -0.14583333333333334, -0.14583333333333334]","[0.09765625, 0.09765625, 0.09765625, 0.09765625, 0.09765625, 0.09765625, 0.09765625]","[0, 0, 0, 0, 0, 0, 0]","[0, 0, 0, 0, 0, 0, 0]","[0, 0, 0, 0, 0, 0, 0]","[0.005179499974474311, 0.015278399921953678, 0.025887599913403392, 0.0422775000333786, 0.05874620005488396, 0.07528200000524521, 0.09242690005339682]",15.9898890000768,None,"[1, 1, 1, 1, 1, 1, 1]",40,15.9898890000768,None,15.9898890000768,None,15.9898890000768,None,15.9898890000768,None,,,,,,,,,,,,,,,,,,,a,001,5,2020_Jun_26_1640,pAdaptTest5,2020.1.3,60.03723511115066,
1,1,4,0,3,3,3,,,,,,,,,"[-0.14583333333333334, -0.14583333333333334, -0.14583333333333334, -0.14583333333333334, -0.14583333333333334, -0.14583333333333334, -0.14583333333333334, -0.14583333333333334, -0.14583333333333334, -0.14583333333333334, -0.14583333333333334, -0.14583333333333334, -0.14583333333333334, -0.14583333333333334, -0.14583333333333334, -0.14583333333333334, -0.14583333333333334, -0.14583333333333334, -0.14583333333333334, -0.14583333333333334]","[0.09765625, 0.09765625, 0.09765625, 0.09765625, 0.09765625, 0.09765625, 0.09765625, 0.09765625, 0.09765625, 0.09765625, 0.09765625, 0.09765625, 0.09765625, 0.09765625, 0.09765625, 0.09765625, 0.09765625, 0.09765625, 0.09765625, 0.09765625]","[0, 0, 0, 0, 0, 0, 0, 0, 0, 0, 0, 0, 0, 0, 0, 0, 0, 0, 0, 0]","[0, 0, 0, 0, 0, 0, 0, 0, 0, 0, 0, 0, 0, 0, 0, 0, 0, 0, 0, 0]","[0, 0, 0, 0, 0, 0, 0, 0, 0, 0, 0, 0, 0, 0, 0, 0, 0, 0, 0, 0]","[0.004885000176727772, 0.014628800097852945, 0.02530129998922348, 0.0414410000666976, 0.058187900111079216, 0.07533290004357696, 0.09141440014354885, 0.10804369999095798, 0.12482050014659762, 0.14147020014934242, 0.15813500015065074, 0.1747787999920547, 0.191467700060457, 0.2080759999807924, 0.22490709996782243, 0.24143670010380447, 0.25811280007474124, 0.2747021000832319, 0.29147220007143915, 0.30853949999436736]",16.08968190010637,None,"[1, 1, 1, 1, 1, 1, 1, 1, 1, 1, 1, 1, 1, 1, 1, 1, 1, 1, 1, 1]",50,16.08968190010637,None,16.08968190010637,None,16.08968190010637,None,16.08968190010637,None,,,,,,,,,,,,,,,,,,,a,001,5,2020_Jun_26_1640,pAdaptTest5,2020.1.3,60.03723511115066,
1,1,5,0,4,4,4,,,,,,,,,"[-0.14583333333333334, -0.14583333333333334, -0.14583333333333334, -0.14583333333333334, -0.14583333333333334, -0.14583333333333334, -0.14583333333333334, -0.14583333333333334, -0.14583333333333334, -0.14583333333333334, -0.14583333333333334, -0.14583333333333334, -0.14583333333333334, -0.14583333333333334, -0.14583333333333334, -0.14583333333333334]","[0.09765625, 0.09765625, 0.09765625, 0.09765625, 0.09765625, 0.09765625, 0.09765625, 0.09765625, 0.09765625, 0.09765625, 0.09765625, 0.09765625, 0.09765625, 0.09765625, 0.09765625, 0.09765625]","[0, 0, 0, 0, 0, 0, 0, 0, 0, 0, 0, 0, 0, 0, 0, 0]","[0, 0, 0, 0, 0, 0, 0, 0, 0, 0, 0, 0, 0, 0, 0, 0]","[0, 0, 0, 0, 0, 0, 0, 0, 0, 0, 0, 0, 0, 0, 0, 0]","[0.007477199891582131, 0.018449399853125215, 0.04147870000451803, 0.0589310999494046, 0.07537729991599917, 0.09192569996230304, 0.10870899981819093, 0.12535539991222322, 0.1420347997918725, 0.15860669990070164, 0.17531530000269413, 0.19194109993986785, 0.20877729984931648, 0.22523769992403686, 0.24200119986198843, 0.25915830000303686]",16.4090162999928,None,"[1, 1, 1, 1, 1, 1, 1, 1, 1, 1, 1, 1, 1, 1, 1, 1]",40,16.4090162999928,None,16.4090162999928,None,16.4090162999928,None,16.4090162999928,None,,,,,,,,,,,,,,,,,,,a,001,5,2020_Jun_26_1640,pAdaptTest5,2020.1.3,60.03723511115066,
1,1,6,0,5,5,5,,,,,,,,,"[-0.14583333333333334, -0.14583333333333334, -0.14583333333333334, -0.14583333333333334, -0.14583333333333334, -0.14583333333333334, -0.14583333333333334, -0.14583333333333334, -0.14583333333333334, -0.14583333333333334, -0.14583333333333334, -0.14583333333333334, -0.14583333333333334, -0.14583333333333334, -0.14583333333333334]","[0.09765625, 0.09765625, 0.09765625, 0.09765625, 0.09765625, 0.09765625, 0.09765625, 0.09765625, 0.09765625, 0.09765625, 0.09765625, 0.09765625, 0.09765625, 0.09765625, 0.09765625]","[0, 0, 0, 0, 0, 0, 0, 0, 0, 0, 0, 0, 0, 0, 0]","[0, 0, 0, 0, 0, 0, 0, 0, 0, 0, 0, 0, 0, 0, 0]","[0, 0, 0, 0, 0, 0, 0, 0, 0, 0, 0, 0, 0, 0, 0]","[0.004994400078430772, 0.015288700116798282, 0.02610000013373792, 0.04213570011779666, 0.058593800058588386, 0.07519470015540719, 0.09192090015858412, 0.10855520004406571, 0.1252266000956297, 0.14180830004625022, 0.15861670020967722, 0.17515980009920895, 0.19187760003842413, 0.20847830013372004, 0.22520810016430914]",16.672841100022197,None,"[1, 1, 1, 1, 1, 1, 1, 1, 1, 1, 1, 1, 1, 1, 1]",50,16.672841100022197,None,16.672841100022197,None,16.672841100022197,None,16.672841100022197,None,,,,,,,,,,,,,,,,,,,a,001,5,2020_Jun_26_1640,pAdaptTest5,2020.1.3,60.03723511115066,
1,1,7,0,6,6,6,,,,,,,,,"[-0.14583333333333334, -0.14583333333333334, -0.14583333333333334, -0.14583333333333334, -0.14583333333333334, -0.14583333333333334, -0.14583333333333334, -0.14583333333333334, -0.14583333333333334, -0.14583333333333334, -0.14583333333333334, -0.14583333333333334, -0.14583333333333334, -0.14583333333333334, -0.12630208333333334, -0.09114583333333333, -0.07161458333333333]","[0.09765625, 0.09765625, 0.09765625, 0.09765625, 0.09765625, 0.09765625, 0.09765625, 0.09765625, 0.09765625, 0.09765625, 0.09765625, 0.09765625, 0.09765625, 0.09765625, 0.09505208333333333, 0.09375, 0.09635416666666667]","[0, 0, 0, 0, 0, 0, 0, 0, 0, 0, 0, 0, 0, 0, 0, 0, 0]","[0, 0, 0, 0, 0, 0, 0, 0, 0, 0, 0, 0, 0, 0, 0, 0, 0]","[0, 0, 0, 0, 0, 0, 0, 0, 0, 0, 0, 0, 0, 0, 0, 0, 0]","[0.0071628999430686235, 0.018086900003254414, 0.04268070007674396, 0.05979470000602305, 0.076563699869439, 0.09314349992200732, 0.10988839995115995, 0.12643639999441803, 0.14316409989260137, 0.15979110007174313, 0.1764088999480009, 0.19307659985497594, 0.20980609999969602, 0.22666889987885952, 0.24349480005912483, 0.2601288000587374, 0.2765210000798106]",16.907257300103083,None,"[1, 1, 1, 1, 1, 1, 1, 1, 1, 1, 1, 1, 1, 1, 1, 1, 1]",40,16.907257300103083,None,16.907257300103083,None,16.907257300103083,None,16.907257300103083,None,,,,,,,,,,,,,,,,,,,a,001,5,2020_Jun_26_1640,pAdaptTest5,2020.1.3,60.03723511115066,
1,1,8,0,7,7,7,,,,,,,,,"[-0.07161458333333333, -0.07161458333333333, -0.07161458333333333, -0.07161458333333333, -0.07161458333333333, -0.07161458333333333, -0.07161458333333333, -0.0625, -0.029947916666666668, -0.005208333333333333, 0.0, 0.0026041666666666665, 0.006510416666666667, 0.0078125, 0.009114583333333334, 0.009114583333333334]","[0.09635416666666667, 0.09375, 0.09375, 0.09375, 0.09375, 0.09375, 0.09375, 0.09505208333333333, 0.09635416666666667, 0.09635416666666667, 0.09635416666666667, 0.09635416666666667, 0.09635416666666667, 0.09635416666666667, 0.09635416666666667, 0.09635416666666667]","[0, 0, 0, 0, 0, 0, 0, 0, 0, 0, 0, 0, 0, 0, 0, 0]","[0, 0, 0, 0, 0, 0, 0, 0, 0, 0, 0, 0, 0, 0, 0, 0]","[0, 0, 0, 0, 0, 0, 0, 0, 0, 0, 0, 0, 0, 0, 0, 0]","[0.0047623999416828156, 0.016245600068941712, 0.02712489990517497, 0.04289890010841191, 0.06014590011909604, 0.07627550000324845, 0.09316850011236966, 0.10992530011571944, 0.12665290012955666, 0.14329669997096062, 0.16034139995463192, 0.17657670006155968, 0.19324039993807673, 0.2098493000958115, 0.22629919997416437, 0.24330299999564886]",17.189596000127494,None,"[1, 1, 1, 1, 1, 1, 1, 1, 1, 1, 1, 1, 1, 1, 1, 1]",50,17.189596000127494,None,17.189596000127494,None,17.189596000127494,None,17.189596000127494,None,,,,,,,,,,,,,,,,,,,a,001,5,2020_Jun_26_1640,pAdaptTest5,2020.1.3,60.03723511115066,
1,1,9,0,8,8,8,,,,,,,,,"[0.009114583333333334, 0.009114583333333334, 0.009114583333333334, 0.009114583333333334, 0.009114583333333334, 0.009114583333333334, 0.009114583333333334, 0.009114583333333334, 0.010416666666666666, 0.010416666666666666, 0.009114583333333334, 0.0078125, 0.0078125, 0.006510416666666667, 0.005208333333333333]","[0.09635416666666667, 0.09635416666666667, 0.09635416666666667, 0.09635416666666667, 0.09635416666666667, 0.09635416666666667, 0.09114583333333333, 0.08463541666666667, 0.08203125, 0.08072916666666667, 0.07942708333333333, 0.07942708333333333, 0.07942708333333333, 0.07942708333333333, 0.078125]","[0, 0, 0, 0, 0, 0, 0, 0, 0, 0, 0, 0, 0, 0, 0]","[0, 0, 0, 0, 0, 0, 0, 0, 0, 0, 0, 0, 0, 0, 0]","[0, 0, 0, 0, 0, 0, 0, 0, 0, 0, 0, 0, 0, 0, 0]","[0.004733500070869923, 0.014944100053980947, 0.025697299977764487, 0.0419473999645561, 0.058588899904862046, 0.07559720007702708, 0.09228820004500449, 0.10888090007938445, 0.1258139000274241, 0.1421447000466287, 0.1588661998976022, 0.17531799990683794, 0.19216099986806512, 0.20887520001269877, 0.22613149997778237]",17.439454900100827,None,"[1, 1, 1, 1, 1, 1, 1, 1, 1, 1, 1, 1, 1, 1, 1]",40,17.439454900100827,None,17.439454900100827,None,17.439454900100827,None,17.439454900100827,None,,,,,,,,,,,,,,,,,,,a,001,5,2020_Jun_26_1640,pAdaptTest5,2020.1.3,60.03723511115066,
1,1,10,0,9,9,9,,,,,,,,,"[0.005208333333333333, 0.00390625, 0.00390625, 0.0026041666666666665, 0.0013020833333333333, -0.0013020833333333333, 0.006510416666666667, 0.022135416666666668, 0.032552083333333336, 0.03515625, 0.036458333333333336, 0.036458333333333336, 0.036458333333333336, 0.036458333333333336, 0.036458333333333336, 0.036458333333333336, 0.036458333333333336, 0.036458333333333336, 0.036458333333333336, 0.036458333333333336, 0.036458333333333336, 0.036458333333333336, 0.036458333333333336, 0.036458333333333336, 0.036458333333333336, 0.036458333333333336, 0.036458333333333336, 0.036458333333333336, 0.036458333333333336, 0.036458333333333336, 0.0390625, 0.04296875, 0.046875, 0.053385416666666664, 0.06380208333333333, 0.07552083333333333, 0.1015625, 0.12109375, 0.14583333333333334, 0.16536458333333334, 0.18489583333333334, 0.19791666666666666, 0.20703125, 0.21484375, 0.21744791666666666, 0.22265625, 0.22786458333333334, 0.23177083333333334, 0.23958333333333334, 0.24609375, 0.2552083333333333, 0.2591145833333333, 0.2630208333333333, 0.2669270833333333, 0.2721354166666667, 0.27734375, 0.2786458333333333, 0.2786458333333333]","[0.078125, 0.078125, 0.078125, 0.078125, 0.078125, 0.06770833333333333, 0.037760416666666664, -0.006510416666666667, -0.032552083333333336, -0.04296875, -0.045572916666666664, -0.046875, -0.046875, -0.046875, -0.046875, -0.046875, -0.046875, -0.046875, -0.046875, -0.046875, -0.046875, -0.046875, -0.046875, -0.046875, -0.046875, -0.046875, -0.046875, -0.046875, -0.046875, -0.044270833333333336, -0.016927083333333332, 0.006510416666666667, 0.029947916666666668, 0.049479166666666664, 0.07291666666666667, 0.09635416666666667, 0.13411458333333334, 0.16276041666666666, 0.19401041666666666, 0.21744791666666666, 0.23567708333333334, 0.24869791666666666, 0.2604166666666667, 0.2760416666666667, 0.2838541666666667, 0.2903645833333333, 0.2942708333333333, 0.296875, 0.2981770833333333, 0.2994791666666667, 0.30078125, 0.3020833333333333, 0.3033854166666667, 0.3046875, 0.3072916666666667, 0.30859375, 0.3098958333333333, 0.3098958333333333]","[0, 0, 0, 0, 0, 0, 0, 0, 0, 0, 0, 0, 0, 0, 0, 0, 0, 0, 0, 0, 0, 0, 0, 0, 0, 0, 0, 0, 0, 0, 0, 0, 0, 0, 0, 0, 0, 0, 0, 0, 0, 0, 0, 0, 0, 0, 0, 0, 0, 0, 0, 0, 0, 0, 0, 0, 0, 0]","[0, 0, 0, 0, 0, 0, 0, 0, 0, 0, 0, 0, 0, 0, 0, 0, 0, 0, 0, 0, 0, 0, 0, 0, 0, 0, 0, 0, 0, 0, 0, 0, 0, 0, 0, 0, 0, 0, 0, 0, 0, 0, 0, 0, 0, 0, 0, 0, 0, 0, 0, 0, 0, 0, 0, 0, 0, 0]","[0, 0, 0, 0, 0, 0, 0, 0, 0, 0, 0, 0, 0, 0, 0, 0, 0, 0, 0, 0, 0, 0, 0, 0, 0, 0, 0, 0, 0, 0, 0, 0, 0, 0, 0, 0, 0, 0, 0, 0, 0, 0, 0, 0, 0, 0, 0, 0, 0, 0, 0, 0, 0, 0, 0, 0, 0, 0]","[0.008194399997591972, 0.01921029994264245, 0.040672200033441186, 0.058241399936378, 0.07463419996201992, 0.0919087000656873, 0.1079738000407815, 0.12487920001149178, 0.14159419992938638, 0.15785970003344119, 0.1748784000519663, 0.19126580003648996, 0.20785320014692843, 0.2245748001150787, 0.24135980010032654, 0.25798230012878776, 0.27426919993013144, 0.29116749996319413, 0.3079063000623137, 0.32457079994492233, 0.3412143001332879, 0.3578264000825584, 0.3745365000795573, 0.39090909995138645, 0.4076626000460237, 0.4243525001220405, 0.4411880001425743, 0.4578658000100404, 0.474954399978742, 0.49139990005642176, 0.5081879000645131, 0.5250902001280338, 0.5414632000029087, 0.5580857000313699, 0.5749194999225438, 0.5914398001041263, 0.6081658001057804, 0.6248792000114918, 0.6414845001418144, 0.6579454001039267, 0.6748610001523048, 0.6914725000970066, 0.7081484999507666, 0.7247933000326157, 0.7417925000190735, 0.7579169999808073, 0.7748952999245375, 0.7913355999626219, 0.8080466000828892, 0.824722700053826, 0.8418322999496013, 0.8585225001443177, 0.8749786999542266, 0.8912740999367088, 0.9083106000907719, 0.9250179000664502, 0.9410876000765711, 0.9585013999603689]",17.676792799960822,None,"[1, 1, 1, 1, 1, 1, 1, 1, 2, 2, 2, 2, 2, 2, 2, 2, 2, 2, 2, 2, 2, 2, 2, 2, 2, 2, 2, 2, 2, 2, 2, 2, 2, 2, 2, 2, 2, 2, 2, 2, 2, 2, 2, 2, 2, 2, 2, 2, 2, 3, 3, 3, 3, 3, 3, 3, 3, 3]",50,17.676792799960822,None,17.676792799960822,None,17.676792799960822,None,17.676792799960822,None,,,,,,,,,,,,,,,,,,,a,001,5,2020_Jun_26_1640,pAdaptTest5,2020.1.3,60.03723511115066,
1,1,11,0,10,10,10,,,,,,,,,"[0.2786458333333333, 0.2786458333333333, 0.2786458333333333, 0.2786458333333333, 0.2786458333333333, 0.2786458333333333, 0.2786458333333333, 0.2786458333333333, 0.2734375, 0.2669270833333333, 0.2565104166666667, 0.23697916666666666, 0.22786458333333334, 0.21744791666666666, 0.2109375, 0.20833333333333334]","[0.3098958333333333, 0.3098958333333333, 0.3098958333333333, 0.3098958333333333, 0.3098958333333333, 0.3098958333333333, 0.3098958333333333, 0.3098958333333333, 0.3046875, 0.2864583333333333, 0.265625, 0.23046875, 0.2109375, 0.19140625, 0.17447916666666666, 0.16015625]","[0, 0, 0, 0, 0, 0, 0, 0, 0, 0, 0, 0, 0, 0, 0, 0]","[0, 0, 0, 0, 0, 0, 0, 0, 0, 0, 0, 0, 0, 0, 0, 0]","[0, 0, 0, 0, 0, 0, 0, 0, 0, 0, 0, 0, 0, 0, 0, 0]","[0.004324200097471476, 0.01580180018208921, 0.04097550013102591, 0.058230800088495016, 0.07557090022601187, 0.09169430006295443, 0.10827680001966655, 0.1253018002025783, 0.14198090019635856, 0.15866640000604093, 0.17535130004398525, 0.19185210019350052, 0.20848080003634095, 0.22527640010230243, 0.241966700181365, 0.2594369000289589]",18.639379299944267,None,"[1, 1, 1, 1, 1, 1, 1, 1, 1, 1, 1, 1, 1, 1, 1, 1]",40,18.639379299944267,None,18.639379299944267,None,18.639379299944267,None,18.639379299944267,None,,,,,,,,,,,,,,,,,,,a,001,5,2020_Jun_26_1640,pAdaptTest5,2020.1.3,60.03723511115066,
1,1,12,0,11,11,11,,,,,,,,,"[0.20572916666666666, 0.203125, 0.20182291666666666, 0.20182291666666666, 0.20182291666666666, 0.20442708333333334, 0.20703125, 0.2109375, 0.21223958333333334, 0.21223958333333334, 0.21223958333333334, 0.21223958333333334, 0.21223958333333334]","[0.14583333333333334, 0.13020833333333334, 0.11979166666666667, 0.10546875, 0.09635416666666667, 0.0859375, 0.07291666666666667, 0.061197916666666664, 0.052083333333333336, 0.046875, 0.04296875, 0.0390625, 0.03515625]","[0, 0, 0, 0, 0, 0, 0, 0, 0, 0, 0, 0, 0]","[0, 0, 0, 0, 0, 0, 0, 0, 0, 0, 0, 0, 0]","[0, 0, 0, 0, 0, 0, 0, 0, 0, 0, 0, 0, 0]","[0.004782599862664938, 0.016741500003263354, 0.04105129977688193, 0.058017299976199865, 0.07478199992328882, 0.09138399991206825, 0.10811089980416, 0.12464219983667135, 0.14133539982140064, 0.15798649983480573, 0.1747005998622626, 0.19139789999462664, 0.20867649978026748]",18.90720809996128,None,"[1, 1, 1, 1, 1, 1, 1, 1, 1, 1, 1, 1, 1]",50,18.90720809996128,None,18.90720809996128,None,18.90720809996128,None,18.90720809996128,None,,,,,,,,,,,,,,,,,,,a,001,5,2020_Jun_26_1640,pAdaptTest5,2020.1.3,60.03723511115066,
1,1,13,0,12,12,12,,,,,,,,,"[0.21223958333333334, 0.21223958333333334, 0.21223958333333334, 0.2109375, 0.2109375, 0.2109375, 0.20963541666666666, 0.20963541666666666, 0.20963541666666666, 0.20963541666666666, 0.20963541666666666, 0.20963541666666666]","[0.03125, 0.028645833333333332, 0.026041666666666668, 0.022135416666666668, 0.020833333333333332, 0.018229166666666668, 0.016927083333333332, 0.015625, 0.015625, 0.015625, 0.015625, 0.015625]","[0, 0, 0, 0, 0, 0, 0, 0, 0, 0, 0, 0]","[0, 0, 0, 0, 0, 0, 0, 0, 0, 0, 0, 0]","[0, 0, 0, 0, 0, 0, 0, 0, 0, 0, 0, 0]","[0.004683000035583973, 0.015418200055137277, 0.0414595000911504, 0.05930300010368228, 0.07546339998953044, 0.09211739990860224, 0.10851310007274151, 0.1251205001026392, 0.14218500000424683, 0.1584214000031352, 0.1751564999576658, 0.19181340001523495]",19.1225706001278,None,"[1, 1, 1, 1, 1, 1, 1, 1, 1, 1, 1, 1]",40,19.1225706001278,None,19.1225706001278,None,19.1225706001278,None,19.1225706001278,None,,,,,,,,,,,,,,,,,,,a,001,5,2020_Jun_26_1640,pAdaptTest5,2020.1.3,60.03723511115066,
1,1,14,0,13,13,13,,,,,,,,,"[0.20963541666666666, 0.20963541666666666, 0.20963541666666666, 0.20963541666666666, 0.20963541666666666, 0.20963541666666666, 0.20963541666666666, 0.20963541666666666, 0.20963541666666666, 0.20963541666666666, 0.20963541666666666]","[0.015625, 0.015625, 0.015625, 0.015625, 0.015625, 0.015625, 0.015625, 0.015625, 0.015625, 0.015625, 0.015625]","[0, 0, 0, 0, 0, 0, 0, 0, 0, 0, 0]","[0, 0, 0, 0, 0, 0, 0, 0, 0, 0, 0]","[0, 0, 0, 0, 0, 0, 0, 0, 0, 0, 0]","[0.003876199945807457, 0.01472109998576343, 0.02666880004107952, 0.04334570001810789, 0.05997729999944568, 0.07649679994210601, 0.09330690000206232, 0.10993009991943836, 0.12663710000924766, 0.14321570005267859, 0.160244399914518]",19.319887700024992,None,"[1, 1, 1, 1, 1, 1, 1, 1, 1, 1, 1]",50,19.319887700024992,None,19.319887700024992,None,19.319887700024992,None,19.319887700024992,None,,,,,,,,,,,,,,,,,,,a,001,5,2020_Jun_26_1640,pAdaptTest5,2020.1.3,60.03723511115066,
1,1,15,0,14,14,14,,,,,,,,,"[0.20963541666666666, 0.20963541666666666, 0.20963541666666666, 0.20963541666666666, 0.20963541666666666, 0.20963541666666666, 0.20963541666666666, 0.20963541666666666, 0.203125, 0.203125, 0.203125, 0.203125]","[0.015625, 0.015625, 0.015625, 0.015625, 0.015625, 0.015625, 0.015625, 0.014322916666666666, 0.015625, 0.015625, 0.015625, 0.015625]","[0, 0, 0, 0, 0, 0, 0, 0, 0, 0, 0, 0]","[0, 0, 0, 0, 0, 0, 0, 0, 0, 0, 0, 0]","[0, 0, 0, 0, 0, 0, 0, 0, 0, 0, 0, 0]","[0.004089499823749065, 0.015520300017669797, 0.026330000022426248, 0.04224199987947941, 0.058980299858376384, 0.07560459990054369, 0.09245809982530773, 0.11010269983671606, 0.12607629992999136, 0.1422782998997718, 0.15892930002883077, 0.17631859984248877]",19.488394200103357,None,"[1, 1, 1, 1, 1, 1, 1, 1, 1, 1, 1, 1]",40,19.488394200103357,None,19.488394200103357,None,19.488394200103357,None,19.488394200103357,None,,,,,,,,,,,,,,,,,,,a,001,5,2020_Jun_26_1640,pAdaptTest5,2020.1.3,60.03723511115066,
1,1,16,0,15,15,15,,,,,,,,,"[0.203125, 0.203125, 0.203125, 0.203125, 0.203125, 0.203125, 0.203125, 0.203125, 0.203125, 0.203125, 0.203125, 0.203125, 0.203125]","[0.015625, 0.015625, 0.015625, 0.015625, 0.015625, 0.015625, 0.015625, 0.015625, 0.015625, 0.015625, 0.015625, 0.015625, 0.015625]","[0, 0, 0, 0, 0, 0, 0, 0, 0, 0, 0, 0, 0]","[0, 0, 0, 0, 0, 0, 0, 0, 0, 0, 0, 0, 0]","[0, 0, 0, 0, 0, 0, 0, 0, 0, 0, 0, 0, 0]","[0.004181000171229243, 0.015350400004535913, 0.02602770016528666, 0.04205380007624626, 0.05872349999845028, 0.07566790003329515, 0.0922429000493139, 0.10869240015745163, 0.1253943000920117, 0.14207270019687712, 0.15866350010037422, 0.1753363001625985, 0.19238360016606748]",19.672417599940673,None,"[1, 1, 1, 1, 1, 1, 1, 1, 1, 1, 1, 1, 1]",50,19.672417599940673,None,19.672417599940673,None,19.672417599940673,None,19.672417599940673,None,,,,,,,,,,,,,,,,,,,a,001,5,2020_Jun_26_1640,pAdaptTest5,2020.1.3,60.03723511115066,
1,1,17,0,16,16,16,,,,,,,,,"[0.203125, 0.203125, 0.203125, 0.203125, 0.203125, 0.203125, 0.203125, 0.203125, 0.203125, 0.203125, 0.203125, 0.203125, 0.203125]","[0.015625, 0.015625, 0.015625, 0.015625, 0.015625, 0.015625, 0.015625, 0.015625, 0.015625, 0.015625, 0.015625, 0.015625, 0.015625]","[0, 0, 0, 0, 0, 0, 0, 0, 0, 0, 0, 0, 0]","[0, 0, 0, 0, 0, 0, 0, 0, 0, 0, 0, 0, 0]","[0, 0, 0, 0, 0, 0, 0, 0, 0, 0, 0, 0, 0]","[0.004108499968424439, 0.015356299933046103, 0.025836899876594543, 0.04273250000551343, 0.05875969980843365, 0.07539639994502068, 0.09204569994471967, 0.1087090999353677, 0.12582669989205897, 0.14205499994568527, 0.15868419990874827, 0.1753961998037994, 0.19255409995093942]",19.87186160008423,None,"[1, 1, 1, 1, 1, 1, 1, 1, 1, 1, 1, 1, 1]",40,19.87186160008423,None,19.87186160008423,None,19.87186160008423,None,19.87186160008423,None,,,,,,,,,,,,,,,,,,,a,001,5,2020_Jun_26_1640,pAdaptTest5,2020.1.3,60.03723511115066,
1,1,18,0,17,17,17,,,,,,,,,"[0.203125, 0.203125, 0.203125, 0.203125, 0.203125, 0.203125, 0.203125, 0.203125, 0.203125, 0.203125, 0.203125, 0.203125]","[0.015625, 0.015625, 0.015625, 0.015625, 0.015625, 0.015625, 0.015625, 0.015625, 0.015625, 0.015625, 0.015625, 0.015625]","[0, 0, 0, 0, 0, 0, 0, 0, 0, 0, 0, 0]","[0, 0, 0, 0, 0, 0, 0, 0, 0, 0, 0, 0]","[0, 0, 0, 0, 0, 0, 0, 0, 0, 0, 0, 0]","[0.004563499940559268, 0.015298800077289343, 0.026004499988630414, 0.0417715001385659, 0.05865120002999902, 0.07512810011394322, 0.09186569997109473, 0.10853680013678968, 0.1251660999841988, 0.14186229999177158, 0.15853020013310015, 0.17559510003775358]",20.07205260009505,None,"[1, 1, 1, 1, 1, 1, 1, 1, 1, 1, 1, 1]",50,20.07205260009505,None,20.07205260009505,None,20.07205260009505,None,20.07205260009505,None,,,,,,,,,,,,,,,,,,,a,001,5,2020_Jun_26_1640,pAdaptTest5,2020.1.3,60.03723511115066,
1,1,19,0,18,18,18,,,,,,,,,"[0.203125, 0.203125, 0.203125, 0.203125, 0.203125, 0.203125, 0.203125, 0.203125, 0.203125, 0.203125, 0.203125, 0.203125, 0.203125]","[0.015625, 0.015625, 0.015625, 0.015625, 0.015625, 0.015625, 0.015625, 0.015625, 0.015625, 0.015625, 0.015625, 0.015625, 0.015625]","[0, 0, 0, 0, 0, 0, 0, 0, 0, 0, 0, 0, 0]","[0, 0, 0, 0, 0, 0, 0, 0, 0, 0, 0, 0, 0]","[0, 0, 0, 0, 0, 0, 0, 0, 0, 0, 0, 0, 0]","[0.004435499897226691, 0.014763799961656332, 0.02556029986590147, 0.04195280000567436, 0.0589735999237746, 0.0752683999016881, 0.09203469986096025, 0.10858969995751977, 0.1256256999913603, 0.14191689994186163, 0.15870859986171126, 0.17526849987916648, 0.1924262000247836]",20.25518780015409,None,"[1, 1, 1, 1, 1, 1, 1, 1, 1, 1, 1, 1, 1]",40,20.25518780015409,None,20.25518780015409,None,20.25518780015409,None,20.25518780015409,None,,,,,,,,,,,,,,,,,,,a,001,5,2020_Jun_26_1640,pAdaptTest5,2020.1.3,60.03723511115066,
1,1,20,0,19,19,19,,,,,,,,,"[0.203125, 0.203125, 0.203125, 0.203125, 0.203125, 0.203125, 0.203125, 0.203125, 0.203125, 0.203125, 0.203125, 0.203125]","[0.015625, 0.015625, 0.015625, 0.015625, 0.015625, 0.015625, 0.015625, 0.015625, 0.015625, 0.015625, 0.015625, 0.015625]","[0, 0, 0, 0, 0, 0, 0, 0, 0, 0, 0, 0]","[0, 0, 0, 0, 0, 0, 0, 0, 0, 0, 0, 0]","[0, 0, 0, 0, 0, 0, 0, 0, 0, 0, 0, 0]","[0.0046159999910742044, 0.015003100037574768, 0.02573530003428459, 0.0418699998408556, 0.05857319990172982, 0.07521869987249374, 0.09192439983598888, 0.10852260002866387, 0.1251904999371618, 0.14185180002823472, 0.15849950001575053, 0.17595629999414086]",20.4552132000681,None,"[1, 1, 1, 1, 1, 1, 1, 1, 1, 1, 1, 1]",50,20.4552132000681,None,20.4552132000681,None,20.4552132000681,None,20.4552132000681,None,,,,,,,,,,,,,,,,,,,a,001,5,2020_Jun_26_1640,pAdaptTest5,2020.1.3,60.03723511115066,
1,1,21,0,20,20,20,,,,,,,,,"[0.203125, 0.203125, 0.203125, 0.203125, 0.203125, 0.203125, 0.203125, 0.203125]","[0.015625, 0.015625, 0.015625, 0.015625, 0.015625, 0.015625, 0.015625, 0.015625]","[0, 0, 0, 0, 0, 0, 0, 0]","[0, 0, 0, 0, 0, 0, 0, 0]","[0, 0, 0, 0, 0, 0, 0, 0]","[0.00440780003555119, 0.015617100056260824, 0.04136090003885329, 0.059055499965325, 0.07531489990651608, 0.09201089991256595, 0.10868000006303191, 0.1253118000458926]",20.638406899990514,None,"[1, 1, 1, 1, 1, 1, 1, 1]",40,20.638406899990514,None,20.638406899990514,None,20.638406899990514,None,20.638406899990514,None,,,,,,,,,,,,,,,,,,,a,001,5,2020_Jun_26_1640,pAdaptTest5,2020.1.3,60.03723511115066,
1,1,22,0,21,21,21,,,,,,,,,"[0.203125, 0.203125, 0.203125, 0.203125, 0.203125, 0.203125, 0.203125, 0.203125, 0.203125, 0.203125, 0.203125, 0.203125, 0.203125]","[0.015625, 0.015625, 0.015625, 0.015625, 0.015625, 0.015625, 0.015625, 0.015625, 0.015625, 0.015625, 0.015625, 0.015625, 0.015625]","[0, 0, 0, 0, 0, 0, 0, 0, 0, 0, 0, 0, 0]","[0, 0, 0, 0, 0, 0, 0, 0, 0, 0, 0, 0, 0]","[0, 0, 0, 0, 0, 0, 0, 0, 0, 0, 0, 0, 0]","[0.004107900196686387, 0.013889600057154894, 0.026480200001969934, 0.043169400189071894, 0.06034409999847412, 0.07649930007755756, 0.09319570008665323, 0.1098344000056386, 0.12648690002970397, 0.14321700017899275, 0.15975820017047226, 0.17654570005834103, 0.193461200222373]",20.769559500040486,None,"[1, 1, 1, 1, 1, 1, 1, 1, 1, 1, 1, 1, 1]",50,20.769559500040486,None,20.769559500040486,None,20.769559500040486,None,20.769559500040486,None,,,,,,,,,,,,,,,,,,,a,001,5,2020_Jun_26_1640,pAdaptTest5,2020.1.3,60.03723511115066,
1,1,23,0,22,22,22,,,,,,,,,"[0.203125, 0.203125, 0.203125, 0.203125, 0.203125, 0.203125, 0.203125, 0.203125, 0.203125, 0.203125, 0.203125, 0.203125]","[0.015625, 0.015625, 0.015625, 0.015625, 0.015625, 0.015625, 0.015625, 0.015625, 0.015625, 0.015625, 0.015625, 0.015625]","[0, 0, 0, 0, 0, 0, 0, 0, 0, 0, 0, 0]","[0, 0, 0, 0, 0, 0, 0, 0, 0, 0, 0, 0]","[0, 0, 0, 0, 0, 0, 0, 0, 0, 0, 0, 0]","[0.004446200095117092, 0.015279999934136868, 0.02613219991326332, 0.04207869991660118, 0.05876170005649328, 0.07622530008666217, 0.09209039993584156, 0.10867840005084872, 0.12541419989429414, 0.14207549998536706, 0.15877069998532534, 0.17554480000399053]",20.971621700096875,None,"[1, 1, 1, 1, 1, 1, 1, 1, 1, 1, 1, 1]",40,20.971621700096875,None,20.971621700096875,None,20.971621700096875,None,20.971621700096875,None,,,,,,,,,,,,,,,,,,,a,001,5,2020_Jun_26_1640,pAdaptTest5,2020.1.3,60.03723511115066,
1,1,24,0,23,23,23,,,,,,,,,"[0.203125, 0.203125, 0.203125, 0.203125, 0.203125, 0.203125, 0.203125, 0.203125, 0.203125, 0.203125, 0.203125, 0.203125]","[0.015625, 0.015625, 0.015625, 0.015625, 0.015625, 0.015625, 0.015625, 0.015625, 0.015625, 0.015625, 0.015625, 0.015625]","[0, 0, 0, 0, 0, 0, 0, 0, 0, 0, 0, 0]","[0, 0, 0, 0, 0, 0, 0, 0, 0, 0, 0, 0]","[0, 0, 0, 0, 0, 0, 0, 0, 0, 0, 0, 0]","[0.004356399876996875, 0.014550500083714724, 0.025794999906793237, 0.04184910003095865, 0.05857570003718138, 0.07525049988180399, 0.09190439991652966, 0.10868910001590848, 0.12522549997083843, 0.14198149996809661, 0.15879449993371964, 0.17513379990123212]",21.15481420001015,None,"[1, 1, 1, 1, 1, 1, 1, 1, 1, 1, 1, 1]",50,21.15481420001015,None,21.15481420001015,None,21.15481420001015,None,21.15481420001015,None,,,,,,,,,,,,,,,,,,,a,001,5,2020_Jun_26_1640,pAdaptTest5,2020.1.3,60.03723511115066,
1,1,25,0,24,24,24,,,,,,,,,"[0.203125, 0.203125, 0.203125, 0.203125, 0.203125, 0.203125, 0.203125, 0.203125, 0.203125, 0.203125, 0.203125]","[0.015625, 0.015625, 0.015625, 0.015625, 0.015625, 0.015625, 0.015625, 0.015625, 0.015625, 0.015625, 0.015625]","[0, 0, 0, 0, 0, 0, 0, 0, 0, 0, 0]","[0, 0, 0, 0, 0, 0, 0, 0, 0, 0, 0]","[0, 0, 0, 0, 0, 0, 0, 0, 0, 0, 0]","[0.0041059001814574, 0.015313100069761276, 0.02714780019596219, 0.04305610014125705, 0.05972990021109581, 0.07632350013591349, 0.0930094001814723, 0.10969900013878942, 0.1263324001338333, 0.14303010003641248, 0.16006550006568432]",21.337136100046337,None,"[1, 1, 1, 1, 1, 1, 1, 1, 1, 1, 1]",40,21.337136100046337,None,21.337136100046337,None,21.337136100046337,None,21.337136100046337,None,,,,,,,,,,,,,,,,,,,a,001,5,2020_Jun_26_1640,pAdaptTest5,2020.1.3,60.03723511115066,
1,1,26,0,25,25,25,,,,,,,,,"[0.203125, 0.203125, 0.203125, 0.203125, 0.203125, 0.203125, 0.203125, 0.203125, 0.203125, 0.203125, 0.203125, 0.203125, 0.203125]","[0.015625, 0.015625, 0.015625, 0.015625, 0.015625, 0.015625, 0.015625, 0.015625, 0.015625, 0.015625, 0.015625, 0.015625, 0.015625]","[0, 0, 0, 0, 0, 0, 0, 0, 0, 0, 0, 0, 0]","[0, 0, 0, 0, 0, 0, 0, 0, 0, 0, 0, 0, 0]","[0, 0, 0, 0, 0, 0, 0, 0, 0, 0, 0, 0, 0]","[0.004217099864035845, 0.01555489981546998, 0.026359800016507506, 0.04215139988809824, 0.05884019983932376, 0.07552729989401996, 0.0922471999656409, 0.10888769989833236, 0.12548539997078478, 0.1421347998548299, 0.15883119986392558, 0.17552269995212555, 0.19250749982893467]",21.504692800110206,None,"[1, 1, 1, 1, 1, 1, 1, 1, 1, 1, 1, 1, 1]",50,21.504692800110206,None,21.504692800110206,None,21.504692800110206,None,21.504692800110206,None,,,,,,,,,,,,,,,,,,,a,001,5,2020_Jun_26_1640,pAdaptTest5,2020.1.3,60.03723511115066,
1,1,27,0,26,26,26,,,,,,,,,"[0.203125, 0.203125, 0.203125, 0.203125, 0.203125, 0.203125, 0.203125, 0.203125, 0.203125, 0.203125, 0.203125, 0.203125, 0.203125]","[0.015625, 0.015625, 0.015625, 0.015625, 0.015625, 0.015625, 0.015625, 0.015625, 0.015625, 0.015625, 0.015625, 0.015625, 0.015625]","[0, 0, 0, 0, 0, 0, 0, 0, 0, 0, 0, 0, 0]","[0, 0, 0, 0, 0, 0, 0, 0, 0, 0, 0, 0, 0]","[0, 0, 0, 0, 0, 0, 0, 0, 0, 0, 0, 0, 0]","[0.0042825001291930676, 0.015023700194433331, 0.02601000014692545, 0.042111200047656894, 0.05886750016361475, 0.07538470020517707, 0.0920382000040263, 0.10877080005593598, 0.12585870013572276, 0.14212140021845698, 0.15872130007483065, 0.17533710016869009, 0.19241330004297197]",21.70470180013217,None,"[1, 1, 1, 1, 1, 1, 1, 1, 1, 1, 1, 1, 1]",40,21.70470180013217,None,21.70470180013217,None,21.70470180013217,None,21.70470180013217,None,,,,,,,,,,,,,,,,,,,a,001,5,2020_Jun_26_1640,pAdaptTest5,2020.1.3,60.03723511115066,
1,1,28,0,27,27,27,,,,,,,,,"[0.203125, 0.203125, 0.203125, 0.203125, 0.203125, 0.203125, 0.203125]","[0.015625, 0.015625, 0.015625, 0.015625, 0.015625, 0.015625, 0.015625]","[0, 0, 0, 0, 0, 0, 0]","[0, 0, 0, 0, 0, 0, 0]","[0, 0, 0, 0, 0, 0, 0]","[0.004602199885994196, 0.014846500009298325, 0.025250199949368834, 0.04142789985053241, 0.058079199865460396, 0.07472479995340109, 0.0917922998778522]",21.904826400103047,None,"[1, 1, 1, 1, 1, 1, 1]",50,21.904826400103047,None,21.904826400103047,None,21.904826400103047,None,21.904826400103047,None,,,,,,,,,,,,,,,,,,,a,001,5,2020_Jun_26_1640,pAdaptTest5,2020.1.3,60.03723511115066,
1,1,29,0,28,28,28,,,,,,,,,"[0.203125, 0.203125, 0.203125, 0.203125, 0.203125, 0.203125, 0.203125, 0.203125, 0.203125, 0.203125]","[0.015625, 0.015625, 0.015625, 0.015625, 0.015625, 0.015625, 0.015625, 0.015625, 0.015625, 0.015625]","[0, 0, 0, 0, 0, 0, 0, 0, 0, 0]","[0, 0, 0, 0, 0, 0, 0, 0, 0, 0]","[0, 0, 0, 0, 0, 0, 0, 0, 0, 0]","[0.004461799981072545, 0.015550500014796853, 0.02628370001912117, 0.04215910006314516, 0.05884970002807677, 0.0759761999361217, 0.09211739990860224, 0.10880389995872974, 0.12549420003779233, 0.1420479000080377]",22.004744100151584,None,"[1, 1, 1, 1, 1, 1, 1, 1, 1, 1]",40,22.004744100151584,None,22.004744100151584,None,22.004744100151584,None,22.004744100151584,None,,,,,,,,,,,,,,,,,,,a,001,5,2020_Jun_26_1640,pAdaptTest5,2020.1.3,60.03723511115066,
1,1,30,0,29,29,29,,,,,,,,,"[0.203125, 0.203125, 0.203125, 0.203125, 0.203125, 0.203125, 0.203125]","[0.015625, 0.015625, 0.015625, 0.015625, 0.015625, 0.015625, 0.015625]","[0, 0, 0, 0, 0, 0, 0]","[0, 0, 0, 0, 0, 0, 0]","[0, 0, 0, 0, 0, 0, 0]","[0.003996699815616012, 0.01418039994314313, 0.02651889994740486, 0.04384909989312291, 0.05990100000053644, 0.0765404999256134, 0.09370550001040101]",22.152391500072554,None,"[1, 1, 1, 1, 1, 1, 1]",50,22.152391500072554,None,22.152391500072554,None,22.152391500072554,None,22.152391500072554,None,,,,,,,,,,,,,,,,,,,a,001,5,2020_Jun_26_1640,pAdaptTest5,2020.1.3,60.03723511115066,
1,1,31,0,30,30,30,,,,,,,,,"[0.203125, 0.203125, 0.203125, 0.203125, 0.203125, 0.203125, 0.203125, 0.203125]","[0.015625, 0.015625, 0.015625, 0.015625, 0.015625, 0.015625, 0.015625, 0.015625]","[0, 0, 0, 0, 0, 0, 0, 0]","[0, 0, 0, 0, 0, 0, 0, 0]","[0, 0, 0, 0, 0, 0, 0, 0]","[0.0040178000926971436, 0.015169500140473247, 0.026282000122591853, 0.04235420003533363, 0.05907290009781718, 0.07572120008990169, 0.09239790006540716, 0.10934620001353323]",22.254361500032246,None,"[1, 1, 1, 1, 1, 1, 1, 1]",40,22.254361500032246,None,22.254361500032246,None,22.254361500032246,None,22.254361500032246,None,,,,,,,,,,,,,,,,,,,a,001,5,2020_Jun_26_1640,pAdaptTest5,2020.1.3,60.03723511115066,
1,1,32,0,31,31,31,,,,,,,,,"[0.203125, 0.203125, 0.203125, 0.203125, 0.203125, 0.203125, 0.203125, 0.203125]","[0.015625, 0.015625, 0.015625, 0.015625, 0.015625, 0.015625, 0.015625, 0.015625]","[0, 0, 0, 0, 0, 0, 0, 0]","[0, 0, 0, 0, 0, 0, 0, 0]","[0, 0, 0, 0, 0, 0, 0, 0]","[0.004845099989324808, 0.015344299841672182, 0.026161199901252985, 0.04232320003211498, 0.05950209987349808, 0.07553889998234808, 0.0923524999525398, 0.10961050004698336]",22.371041000122204,None,"[1, 1, 1, 1, 1, 1, 1, 1]",50,22.371041000122204,None,22.371041000122204,None,22.371041000122204,None,22.371041000122204,None,,,,,,,,,,,,,,,,,,,a,001,5,2020_Jun_26_1640,pAdaptTest5,2020.1.3,60.03723511115066,
1,1,33,0,32,32,32,,,,,,,,,"[0.203125, 0.203125, 0.203125, 0.203125, 0.203125, 0.203125, 0.203125]","[0.015625, 0.015625, 0.015625, 0.015625, 0.015625, 0.015625, 0.015625]","[0, 0, 0, 0, 0, 0, 0]","[0, 0, 0, 0, 0, 0, 0]","[0, 0, 0, 0, 0, 0, 0]","[0.004759400151669979, 0.015732100000604987, 0.04117990005761385, 0.058999700006097555, 0.0752315002027899, 0.09184920019470155, 0.1084667001850903]",22.488163100089878,None,"[1, 1, 1, 1, 1, 1, 1]",40,22.488163100089878,None,22.488163100089878,None,22.488163100089878,None,22.488163100089878,None,,,,,,,,,,,,,,,,,,,a,001,5,2020_Jun_26_1640,pAdaptTest5,2020.1.3,60.03723511115066,
1,1,34,0,33,33,33,,,,,,,,,"[0.203125, 0.203125, 0.203125, 0.203125, 0.203125, 0.203125, 0.203125, 0.203125]","[0.015625, 0.015625, 0.015625, 0.015625, 0.015625, 0.015625, 0.015625, 0.015625]","[0, 0, 0, 0, 0, 0, 0, 0]","[0, 0, 0, 0, 0, 0, 0, 0]","[0, 0, 0, 0, 0, 0, 0, 0]","[0.00443139998242259, 0.015435999957844615, 0.027044499991461635, 0.04319879994727671, 0.06049479986540973, 0.07650379999540746, 0.09321059985086322, 0.10989509988576174]",22.603760099969804,None,"[1, 1, 1, 1, 1, 1, 1, 1]",50,22.603760099969804,None,22.603760099969804,None,22.603760099969804,None,22.603760099969804,None,,,,,,,,,,,,,,,,,,,a,001,5,2020_Jun_26_1640,pAdaptTest5,2020.1.3,60.03723511115066,
1,1,35,0,34,34,34,,,,,,,,,"[0.203125, 0.203125, 0.203125, 0.203125, 0.203125, 0.203125, 0.203125, 0.203125]","[0.015625, 0.015625, 0.015625, 0.015625, 0.015625, 0.015625, 0.015625, 0.015625]","[0, 0, 0, 0, 0, 0, 0, 0]","[0, 0, 0, 0, 0, 0, 0, 0]","[0, 0, 0, 0, 0, 0, 0, 0]","[0.0039431999903172255, 0.014739600010216236, 0.02675210009329021, 0.04333729995414615, 0.06000309996306896, 0.07670570001937449, 0.09341789991594851, 0.11053430009633303]",22.719001200050116,None,"[1, 1, 1, 1, 1, 1, 1, 1]",40,22.719001200050116,None,22.719001200050116,None,22.719001200050116,None,22.719001200050116,None,,,,,,,,,,,,,,,,,,,a,001,5,2020_Jun_26_1640,pAdaptTest5,2020.1.3,60.03723511115066,
1,1,36,0,35,35,35,,,,,,,,,"[0.203125, 0.203125, 0.203125, 0.203125, 0.203125, 0.203125, 0.203125, 0.203125]","[0.015625, 0.015625, 0.015625, 0.015625, 0.015625, 0.015625, 0.015625, 0.015625]","[0, 0, 0, 0, 0, 0, 0, 0]","[0, 0, 0, 0, 0, 0, 0, 0]","[0, 0, 0, 0, 0, 0, 0, 0]","[0.004144600126892328, 0.01512570003978908, 0.02625430002808571, 0.04245850001461804, 0.059093100018799305, 0.07577490014955401, 0.09281649999320507, 0.10973110003396869]",22.837504000170156,None,"[1, 1, 1, 1, 1, 1, 1, 1]",50,22.837504000170156,None,22.837504000170156,None,22.837504000170156,None,22.837504000170156,None,,,,,,,,,,,,,,,,,,,a,001,5,2020_Jun_26_1640,pAdaptTest5,2020.1.3,60.03723511115066,
2,2,1,,,,,0,0,0,0,22.950412400066853,None,23.083015700103715,None,,,,,,,,,"[1, 1, 1, 1, 1, 1, 1, 1, 1, 1, 1, 1, 1, 1, 1, 1, 1, 1, 1, 1, 1, 1, 1, 1, 2, 2, 2, 2, 2, 2, 2, 2, 2, 2, 2, 2, 2, 2, 2, 2, 2, 2, 2, 2, 2, 2, 2, 2, 2, 2, 2, 2, 2, 2, 2, 2, 2, 2, 2, 3, 3, 3, 3, 3, 3, 3, 3, 3, 3, 3, 3, 3, 3, 3, 3, 3, 3, 3, 3, 3, 3, 3, 3, 3, 3, 3, 3, 3, 3, 3, 3, 3, 3, 3, 3]",40,,,,,,,,,"[0.20182291666666666, 0.19401041666666666, 0.18489583333333334, 0.17578125, 0.16796875, 0.16536458333333334, 0.16536458333333334, 0.16276041666666666, 0.15364583333333334, 0.1484375, 0.14453125, 0.140625, 0.13411458333333334, 0.12369791666666667, 0.09505208333333333, 0.07291666666666667, 0.053385416666666664, 0.041666666666666664, 0.037760416666666664, 0.036458333333333336, 0.033854166666666664, 0.028645833333333332, 0.0234375, 0.018229166666666668, 0.014322916666666666, 0.009114583333333334, -0.0013020833333333333, -0.013020833333333334, -0.0234375, -0.03125, -0.036458333333333336, -0.0390625, -0.0390625, -0.0390625, -0.0390625, -0.0390625, -0.0390625, -0.0390625, -0.0390625, -0.0390625, -0.0390625, -0.03125, -0.01953125, -0.00390625, 0.013020833333333334, 0.0390625, 0.055989583333333336, 0.06901041666666667, 0.07942708333333333, 0.08984375, 0.10677083333333333, 0.12239583333333333, 0.14192708333333334, 0.16536458333333334, 0.19140625, 0.21744791666666666, 0.24869791666666666, 0.2838541666666667, 0.2994791666666667, 0.30859375, 0.3203125, 0.328125, 0.3359375, 0.34375, 0.3502604166666667, 0.35546875, 0.3606770833333333, 0.36328125, 0.3658854166666667, 0.3671875, 0.3697916666666667, 0.3697916666666667, 0.3697916666666667, 0.3697916666666667, 0.3697916666666667, 0.3671875, 0.3450520833333333, 0.3255208333333333, 0.30078125, 0.26953125, 0.21744791666666666, 0.17057291666666666, 0.12239583333333333, 0.08723958333333333, 0.07421875, 0.06510416666666667, 0.05859375, 0.053385416666666664, 0.045572916666666664, 0.033854166666666664, 0.024739583333333332, 0.018229166666666668, 0.01171875, 0.005208333333333333, -0.00390625]","[0.015625, 0.018229166666666668, 0.022135416666666668, 0.022135416666666668, 0.018229166666666668, 0.016927083333333332, 0.016927083333333332, 0.016927083333333332, 0.01953125, 0.022135416666666668, 0.022135416666666668, 0.022135416666666668, 0.022135416666666668, 0.022135416666666668, 0.0234375, 0.0234375, 0.016927083333333332, 0.010416666666666666, 0.0078125, 0.006510416666666667, 0.006510416666666667, 0.009114583333333334, 0.01171875, 0.01171875, 0.01171875, 0.010416666666666666, 0.006510416666666667, 0.0026041666666666665, 0.0, -0.0026041666666666665, -0.005208333333333333, -0.0078125, -0.0078125, -0.0078125, -0.0078125, -0.0078125, -0.0078125, -0.0078125, -0.0078125, -0.0078125, -0.0078125, -0.006510416666666667, -0.0013020833333333333, 0.005208333333333333, 0.016927083333333332, 0.037760416666666664, 0.055989583333333336, 0.07291666666666667, 0.08463541666666667, 0.09635416666666667, 0.11458333333333333, 0.13020833333333334, 0.14453125, 0.16015625, 0.17708333333333334, 0.19270833333333334, 0.2109375, 0.234375, 0.24609375, 0.2565104166666667, 0.2630208333333333, 0.2682291666666667, 0.2721354166666667, 0.27734375, 0.28125, 0.2838541666666667, 0.2877604166666667, 0.2890625, 0.2903645833333333, 0.2916666666666667, 0.29296875, 0.29296875, 0.29296875, 0.29296875, 0.29296875, 0.29296875, 0.28125, 0.2630208333333333, 0.23828125, 0.2109375, 0.16666666666666666, 0.1328125, 0.10416666666666667, 0.08463541666666667, 0.07552083333333333, 0.06901041666666667, 0.06380208333333333, 0.061197916666666664, 0.055989583333333336, 0.049479166666666664, 0.04296875, 0.036458333333333336, 0.03125, 0.024739583333333332, 0.018229166666666668]","[0, 0, 0, 0, 0, 0, 0, 0, 0, 0, 0, 0, 0, 0, 0, 0, 0, 0, 0, 0, 0, 0, 0, 0, 0, 0, 0, 0, 0, 0, 0, 0, 0, 0, 0, 0, 0, 0, 0, 0, 0, 0, 0, 0, 0, 0, 0, 0, 0, 0, 0, 0, 0, 0, 0, 0, 0, 0, 0, 0, 0, 0, 0, 0, 0, 0, 0, 0, 0, 0, 0, 0, 0, 0, 0, 0, 0, 0, 0, 0, 0, 0, 0, 0, 0, 0, 0, 0, 0, 0, 0, 0, 0, 0, 0]","[0, 0, 0, 0, 0, 0, 0, 0, 0, 0, 0, 0, 0, 0, 0, 0, 0, 0, 0, 0, 0, 0, 0, 0, 0, 0, 0, 0, 0, 0, 0, 0, 0, 0, 0, 0, 0, 0, 0, 0, 0, 0, 0, 0, 0, 0, 0, 0, 0, 0, 0, 0, 0, 0, 0, 0, 0, 0, 0, 0, 0, 0, 0, 0, 0, 0, 0, 0, 0, 0, 0, 0, 0, 0, 0, 0, 0, 0, 0, 0, 0, 0, 0, 0, 0, 0, 0, 0, 0, 0, 0, 0, 0, 0, 0]","[0, 0, 0, 0, 0, 0, 0, 0, 0, 0, 0, 0, 0, 0, 0, 0, 0, 0, 0, 0, 0, 0, 0, 0, 0, 0, 0, 0, 0, 0, 0, 0, 0, 0, 0, 0, 0, 0, 0, 0, 0, 0, 0, 0, 0, 0, 0, 0, 0, 0, 0, 0, 0, 0, 0, 0, 0, 0, 0, 0, 0, 0, 0, 0, 0, 0, 0, 0, 0, 0, 0, 0, 0, 0, 0, 0, 0, 0, 0, 0, 0, 0, 0, 0, 0, 0, 0, 0, 0, 0, 0, 0, 0, 0, 0]","[0.011173499980941415, 0.02395729999989271, 0.040560999885201454, 0.05715119978412986, 0.07407999993301928, 0.09023249987512827, 0.10724129993468523, 0.12394619989208877, 0.14055879996158183, 0.15716559998691082, 0.1737386998720467, 0.19019599980674684, 0.20692169992253184, 0.2238127999007702, 0.24044189997948706, 0.25693669985048473, 0.27367649995721877, 0.2906372998841107, 0.307022999972105, 0.3237165999598801, 0.34057139977812767, 0.35707319993525743, 0.37376589979976416, 0.3908591999206692, 0.4070326997898519, 0.42375809978693724, 0.4402966999914497, 0.45685529988259077, 0.4736804999411106, 0.49034109991043806, 0.5075978999957442, 0.5234472998417914, 0.5400637998245656, 0.5567639998625964, 0.5733984999824315, 0.5899409998673946, 0.6066222998779267, 0.6232275997754186, 0.6399012999609113, 0.6567109997849911, 0.6736645998898894, 0.6903392998501658, 0.707085199886933, 0.723528599832207, 0.7406112998723984, 0.7571304999291897, 0.7735752000007778, 0.790303599787876, 0.8068123999983072, 0.8243348998948932, 0.8402618998661637, 0.8569843999575824, 0.8735982999205589, 0.8903221997898072, 0.9068909999914467, 0.9239165999460965, 0.9402131999377161, 0.9567775998730212, 0.9735348999965936, 0.9902747999876738, 1.0067263999953866, 1.023825999815017, 1.0402333999518305, 1.0569601999595761, 1.0735083997715265, 1.090235099894926, 1.1068389997817576, 1.1234372998587787, 1.1404583998955786, 1.1568609999958426, 1.173319699941203, 1.1898926999419928, 1.2065914999693632, 1.2232222999446094, 1.2402275998611003, 1.2569184999447316, 1.2735535998363048, 1.2903064999263734, 1.30692039988935, 1.3234734998550266, 1.3401936998125166, 1.3573759999126196, 1.3734295999165624, 1.3902561999857426, 1.4067658998537809, 1.4234293999616057, 1.4400374998804182, 1.4570436999201775, 1.4735057998914272, 1.4902304999995977, 1.506767899962142, 1.5234048999845982, 1.540071199880913, 1.5567229997832328, 1.5733856000006199]",24.113986199954525,None,24.113986199954525,None,24.113986199954525,None,24.113986199954525,None,24.113986199954525,None,24.113986199954525,None,a,001,5,2020_Jun_26_1640,pAdaptTest5,2020.1.3,60.03723511115066,
2,2,2,,,,,0,1,1,1,,,,,,,,,,,,,"[1, 1, 1, 1, 1, 1, 1, 1, 1, 1, 1, 1, 1, 1, 2, 2, 2, 2, 2, 2, 2, 2, 2, 2, 2, 2, 2, 2, 2, 2, 2, 2, 2, 2, 2, 2, 2, 2, 2, 2, 2, 2, 2, 2, 2, 3, 3, 3, 3, 3, 3, 3, 3, 3, 3, 3, 3, 3, 3, 3, 3, 3, 3, 3, 3]",50,,,,,,,,,"[-0.016927083333333332, -0.032552083333333336, -0.036458333333333336, -0.0390625, -0.0390625, -0.0390625, -0.0390625, -0.0390625, -0.0390625, -0.0390625, -0.03515625, -0.03125, -0.026041666666666668, -0.016927083333333332, -0.009114583333333334, 0.0, 0.01171875, 0.024739583333333332, 0.045572916666666664, 0.07161458333333333, 0.08854166666666667, 0.10546875, 0.1171875, 0.12239583333333333, 0.125, 0.125, 0.125, 0.125, 0.125, 0.125, 0.125, 0.125, 0.125, 0.13151041666666666, 0.14322916666666666, 0.15364583333333334, 0.17578125, 0.19010416666666666, 0.20572916666666666, 0.22005208333333334, 0.23307291666666666, 0.2421875, 0.24869791666666666, 0.2578125, 0.26171875, 0.2630208333333333, 0.2643229166666667, 0.2643229166666667, 0.265625, 0.2669270833333333, 0.2669270833333333, 0.2682291666666667, 0.2682291666666667, 0.2682291666666667, 0.2682291666666667, 0.2682291666666667, 0.2682291666666667, 0.2682291666666667, 0.2682291666666667, 0.2682291666666667, 0.2682291666666667, 0.2682291666666667, 0.2682291666666667, 0.2669270833333333, 0.2630208333333333]","[0.009114583333333334, -0.0026041666666666665, -0.009114583333333334, -0.01171875, -0.013020833333333334, -0.013020833333333334, -0.013020833333333334, -0.013020833333333334, -0.013020833333333334, -0.013020833333333334, -0.013020833333333334, -0.01171875, -0.010416666666666666, -0.00390625, 0.00390625, 0.013020833333333334, 0.0234375, 0.037760416666666664, 0.0625, 0.10026041666666667, 0.12630208333333334, 0.14973958333333334, 0.16666666666666666, 0.17447916666666666, 0.17838541666666666, 0.17838541666666666, 0.17838541666666666, 0.17838541666666666, 0.17838541666666666, 0.17838541666666666, 0.17838541666666666, 0.17838541666666666, 0.17838541666666666, 0.18489583333333334, 0.19921875, 0.21354166666666666, 0.23567708333333334, 0.24739583333333334, 0.2578125, 0.265625, 0.2721354166666667, 0.27734375, 0.2825520833333333, 0.2890625, 0.2916666666666667, 0.29296875, 0.2942708333333333, 0.2955729166666667, 0.296875, 0.2994791666666667, 0.30078125, 0.3020833333333333, 0.3033854166666667, 0.3033854166666667, 0.3033854166666667, 0.3033854166666667, 0.3033854166666667, 0.3033854166666667, 0.3033854166666667, 0.3033854166666667, 0.3033854166666667, 0.3033854166666667, 0.3033854166666667, 0.296875, 0.265625]","[0, 0, 0, 0, 0, 0, 0, 0, 0, 0, 0, 0, 0, 0, 0, 0, 0, 0, 0, 0, 0, 0, 0, 0, 0, 0, 0, 0, 0, 0, 0, 0, 0, 0, 0, 0, 0, 0, 0, 0, 0, 0, 0, 0, 0, 0, 0, 0, 0, 0, 0, 0, 0, 0, 0, 0, 0, 0, 0, 0, 0, 0, 0, 0, 0]","[0, 0, 0, 0, 0, 0, 0, 0, 0, 0, 0, 0, 0, 0, 0, 0, 0, 0, 0, 0, 0, 0, 0, 0, 0, 0, 0, 0, 0, 0, 0, 0, 0, 0, 0, 0, 0, 0, 0, 0, 0, 0, 0, 0, 0, 0, 0, 0, 0, 0, 0, 0, 0, 0, 0, 0, 0, 0, 0, 0, 0, 0, 0, 0, 0]","[0, 0, 0, 0, 0, 0, 0, 0, 0, 0, 0, 0, 0, 0, 0, 0, 0, 0, 0, 0, 0, 0, 0, 0, 0, 0, 0, 0, 0, 0, 0, 0, 0, 0, 0, 0, 0, 0, 0, 0, 0, 0, 0, 0, 0, 0, 0, 0, 0, 0, 0, 0, 0, 0, 0, 0, 0, 0, 0, 0, 0, 0, 0, 0, 0]","[0.009553200099617243, 0.021384600084275007, 0.03711270005442202, 0.05414079991169274, 0.0703986999578774, 0.08755549998022616, 0.1035956998821348, 0.12021209998056293, 0.13685239991173148, 0.15375040005892515, 0.17055259994231164, 0.18716529989615083, 0.203965799883008, 0.22065480006858706, 0.23729169997386634, 0.2537634000182152, 0.2704789999406785, 0.28715489991009235, 0.30454710009507835, 0.32084780000150204, 0.33722410001792014, 0.3538629999384284, 0.37056909990496933, 0.38727479986846447, 0.40336219989694655, 0.42023309995420277, 0.43690679990686476, 0.4535803000908345, 0.4701076000928879, 0.48695080005563796, 0.5035556999500841, 0.5205010999925435, 0.537121299887076, 0.5538611998781562, 0.570488200057298, 0.5871496999170631, 0.6038506000768393, 0.6213805999141186, 0.6371883999090642, 0.6538579000625759, 0.6704780999571085, 0.6871289999689907, 0.703939399914816, 0.7205920000560582, 0.7370730000548065, 0.7540134999435395, 0.7703754000831395, 0.7871165999677032, 0.8038540999405086, 0.8202708999160677, 0.8378339998889714, 0.8533717000391334, 0.8700055999215692, 0.8866614999715239, 0.9033552000764757, 0.9199469999875873, 0.9366518000606447, 0.9533847998827696, 0.9699724998790771, 0.9866621000692248, 1.0033829999156296, 1.0199980000033975, 1.036993500078097, 1.0540785999037325, 1.0703563999850303]",25.698016100097448,None,25.698016100097448,None,25.698016100097448,None,25.698016100097448,None,25.698016100097448,None,25.698016100097448,None,a,001,5,2020_Jun_26_1640,pAdaptTest5,2020.1.3,60.03723511115066,
2,2,3,,,,,0,2,2,2,,,,,,,,,,,,,"[1, 1, 1, 1, 1, 1, 1, 1, 1, 1, 1]",40,,,,,,,,,"[0.26171875, 0.25390625, 0.25, 0.24869791666666666, 0.24869791666666666, 0.24739583333333334, 0.24609375, 0.24479166666666666, 0.2421875, 0.24088541666666666, 0.23828125]","[0.24739583333333334, 0.19921875, 0.16536458333333334, 0.13932291666666666, 0.10677083333333333, 0.09505208333333333, 0.08463541666666667, 0.07421875, 0.06640625, 0.0625, 0.059895833333333336]","[0, 0, 0, 0, 0, 0, 0, 0, 0, 0, 0]","[0, 0, 0, 0, 0, 0, 0, 0, 0, 0, 0]","[0, 0, 0, 0, 0, 0, 0, 0, 0, 0, 0]","[0.008321800036355853, 0.02103610010817647, 0.04099770006723702, 0.05814550002105534, 0.07622500020079315, 0.09145510010421276, 0.10793980001471937, 0.12491950020194054, 0.14148470014333725, 0.15824300004169345, 0.1750857001170516]",26.77613819995895,None,26.77613819995895,None,26.77613819995895,None,26.77613819995895,None,26.77613819995895,None,26.77613819995895,None,a,001,5,2020_Jun_26_1640,pAdaptTest5,2020.1.3,60.03723511115066,
2,2,4,,,,,0,3,3,3,,,,,,,,,,,,,"[1, 1, 1, 1, 1, 1, 1, 1, 1, 1]",50,,,,,,,,,"[0.23828125, 0.23828125, 0.23828125, 0.23828125, 0.23828125, 0.23828125, 0.23828125, 0.23828125, 0.23828125, 0.23828125]","[0.05859375, 0.05859375, 0.05859375, 0.05859375, 0.05859375, 0.05859375, 0.05859375, 0.05859375, 0.05859375, 0.05859375]","[0, 0, 0, 0, 0, 0, 0, 0, 0, 0]","[0, 0, 0, 0, 0, 0, 0, 0, 0, 0]","[0, 0, 0, 0, 0, 0, 0, 0, 0, 0]","[0.007400499889627099, 0.019371300004422665, 0.041271999944001436, 0.05897499993443489, 0.0753681999631226, 0.09193409979343414, 0.10867649991996586, 0.12525589996948838, 0.14194849994964898, 0.15914859995245934]",26.957169099943712,None,26.957169099943712,None,26.957169099943712,None,26.957169099943712,None,26.957169099943712,None,26.957169099943712,None,a,001,5,2020_Jun_26_1640,pAdaptTest5,2020.1.3,60.03723511115066,
2,2,5,,,,,0,4,4,4,,,,,,,,,,,,,"[1, 1, 1, 1, 1, 1, 1, 1, 1, 1]",40,,,,,,,,,"[0.23828125, 0.23828125, 0.23828125, 0.23828125, 0.23828125, 0.23828125, 0.23828125, 0.23828125, 0.23828125, 0.23828125]","[0.05859375, 0.05859375, 0.05859375, 0.05859375, 0.05859375, 0.05859375, 0.05859375, 0.05859375, 0.05859375, 0.05859375]","[0, 0, 0, 0, 0, 0, 0, 0, 0, 0]","[0, 0, 0, 0, 0, 0, 0, 0, 0, 0]","[0, 0, 0, 0, 0, 0, 0, 0, 0, 0]","[0.008653900120407343, 0.020369600038975477, 0.04195059998892248, 0.05981120001524687, 0.07568869995884597, 0.09222660004161298, 0.10888930014334619, 0.12559790001250803, 0.14230860001407564, 0.1593625999521464]",27.124531700043008,None,27.124531700043008,None,27.124531700043008,None,27.124531700043008,None,27.124531700043008,None,27.124531700043008,None,a,001,5,2020_Jun_26_1640,pAdaptTest5,2020.1.3,60.03723511115066,
2,2,6,,,,,0,5,5,5,,,,,,,,,,,,,"[1, 1, 1, 1, 1, 1, 1, 1, 1]",50,,,,,,,,,"[0.23828125, 0.23828125, 0.23828125, 0.23828125, 0.23828125, 0.23828125, 0.23828125, 0.23828125, 0.23828125]","[0.05859375, 0.05859375, 0.05859375, 0.05859375, 0.05859375, 0.05859375, 0.05859375, 0.05859375, 0.05859375]","[0, 0, 0, 0, 0, 0, 0, 0, 0]","[0, 0, 0, 0, 0, 0, 0, 0, 0]","[0, 0, 0, 0, 0, 0, 0, 0, 0]","[0.007694700034335256, 0.01910140016116202, 0.041210300056263804, 0.05855610012076795, 0.0754068000242114, 0.09204230015166104, 0.10869650007225573, 0.12536390009336174, 0.14197600004263222]",27.29018889996223,None,27.29018889996223,None,27.29018889996223,None,27.29018889996223,None,27.29018889996223,None,27.29018889996223,None,a,001,5,2020_Jun_26_1640,pAdaptTest5,2020.1.3,60.03723511115066,
2,2,7,,,,,0,6,6,6,,,,,,,,,,,,,"[1, 1, 1, 1, 1, 1, 1, 1, 1, 1, 1]",40,,,,,,,,,"[0.23828125, 0.23828125, 0.23828125, 0.23828125, 0.23828125, 0.23828125, 0.23828125, 0.23828125, 0.23828125, 0.23828125, 0.23828125]","[0.05859375, 0.05859375, 0.05859375, 0.05859375, 0.05859375, 0.05859375, 0.05859375, 0.05859375, 0.05859375, 0.05859375, 0.05859375]","[0, 0, 0, 0, 0, 0, 0, 0, 0, 0, 0]","[0, 0, 0, 0, 0, 0, 0, 0, 0, 0, 0]","[0, 0, 0, 0, 0, 0, 0, 0, 0, 0, 0]","[0.008639700012281537, 0.02028719987720251, 0.041509500006213784, 0.05876030004583299, 0.07605669996701181, 0.0922284999396652, 0.10888720001094043, 0.12542539997957647, 0.14260150003246963, 0.1587326000444591, 0.17543609999120235]",27.44098490010947,None,27.44098490010947,None,27.44098490010947,None,27.44098490010947,None,27.44098490010947,None,27.44098490010947,None,a,001,5,2020_Jun_26_1640,pAdaptTest5,2020.1.3,60.03723511115066,
2,2,8,,,,,0,7,7,7,,,,,,,,,,,,,"[1, 1, 1, 1, 1, 1, 1, 1, 1, 1, 1, 1]",50,,,,,,,,,"[0.23828125, 0.23828125, 0.23828125, 0.23828125, 0.23828125, 0.23828125, 0.23828125, 0.23828125, 0.23828125, 0.23828125, 0.23828125, 0.23828125]","[0.05859375, 0.05859375, 0.05859375, 0.05859375, 0.05859375, 0.05859375, 0.057291666666666664, 0.057291666666666664, 0.057291666666666664, 0.057291666666666664, 0.057291666666666664, 0.057291666666666664]","[0, 0, 0, 0, 0, 0, 0, 0, 0, 0, 0, 0]","[0, 0, 0, 0, 0, 0, 0, 0, 0, 0, 0, 0]","[0, 0, 0, 0, 0, 0, 0, 0, 0, 0, 0, 0]","[0.008307900046929717, 0.020153600024059415, 0.041628999868407845, 0.05906870006583631, 0.0762211000546813, 0.09229500009678304, 0.10897940001450479, 0.12563530006445944, 0.14254090003669262, 0.15908419992774725, 0.1756541000213474, 0.1924884000327438]",27.624210900161415,None,27.624210900161415,None,27.624210900161415,None,27.624210900161415,None,27.624210900161415,None,27.624210900161415,None,a,001,5,2020_Jun_26_1640,pAdaptTest5,2020.1.3,60.03723511115066,
2,2,9,,,,,0,8,8,8,,,,,,,,,,,,,"[1, 1, 1, 1, 1, 1, 1, 1, 1]",40,,,,,,,,,"[0.23828125, 0.23828125, 0.23828125, 0.23828125, 0.23828125, 0.23828125, 0.23828125, 0.23828125, 0.23828125]","[0.057291666666666664, 0.057291666666666664, 0.057291666666666664, 0.057291666666666664, 0.057291666666666664, 0.057291666666666664, 0.057291666666666664, 0.057291666666666664, 0.057291666666666664]","[0, 0, 0, 0, 0, 0, 0, 0, 0]","[0, 0, 0, 0, 0, 0, 0, 0, 0]","[0, 0, 0, 0, 0, 0, 0, 0, 0]","[0.008036399958655238, 0.020141500048339367, 0.042100700084120035, 0.05943719996139407, 0.07652470003813505, 0.0928122999612242, 0.10947529994882643, 0.12611790001392365, 0.14273840002715588]",27.823525700019673,None,27.823525700019673,None,27.823525700019673,None,27.823525700019673,None,27.823525700019673,None,27.823525700019673,None,a,001,5,2020_Jun_26_1640,pAdaptTest5,2020.1.3,60.03723511115066,
2,2,10,,,,,0,9,9,9,,,,,,,,,,,,,"[1, 1, 1, 1, 1, 1, 1, 1, 1, 1]",50,,,,,,,,,"[0.23828125, 0.23828125, 0.23828125, 0.23828125, 0.23828125, 0.23828125, 0.23828125, 0.23828125, 0.23828125, 0.23828125]","[0.057291666666666664, 0.057291666666666664, 0.057291666666666664, 0.057291666666666664, 0.057291666666666664, 0.057291666666666664, 0.057291666666666664, 0.057291666666666664, 0.057291666666666664, 0.057291666666666664]","[0, 0, 0, 0, 0, 0, 0, 0, 0, 0]","[0, 0, 0, 0, 0, 0, 0, 0, 0, 0]","[0, 0, 0, 0, 0, 0, 0, 0, 0, 0]","[0.007798700127750635, 0.019100500037893653, 0.04233510000631213, 0.05976510001346469, 0.07634779997169971, 0.09300999995321035, 0.10960249998606741, 0.12635920010507107, 0.14299590000882745, 0.16018270002678037]",27.972242900170386,None,27.972242900170386,None,27.972242900170386,None,27.972242900170386,None,27.972242900170386,None,27.972242900170386,None,a,001,5,2020_Jun_26_1640,pAdaptTest5,2020.1.3,60.03723511115066,
2,2,11,,,,,0,10,10,10,,,,,,,,,,,,,"[1, 1, 1, 1, 1, 1, 1, 1, 1, 1, 1]",40,,,,,,,,,"[0.23828125, 0.23828125, 0.23828125, 0.23828125, 0.23828125, 0.23828125, 0.23828125, 0.23828125, 0.23828125, 0.23828125, 0.23828125]","[0.057291666666666664, 0.057291666666666664, 0.057291666666666664, 0.057291666666666664, 0.057291666666666664, 0.057291666666666664, 0.057291666666666664, 0.057291666666666664, 0.057291666666666664, 0.057291666666666664, 0.057291666666666664]","[0, 0, 0, 0, 0, 0, 0, 0, 0, 0, 0]","[0, 0, 0, 0, 0, 0, 0, 0, 0, 0, 0]","[0, 0, 0, 0, 0, 0, 0, 0, 0, 0, 0]","[0.008360899984836578, 0.01937650004401803, 0.04075439996086061, 0.058187799993902445, 0.0752443999517709, 0.09141619992442429, 0.108140500029549, 0.12481079995632172, 0.14147350005805492, 0.15817800001241267, 0.17560419999063015]",28.140661700163037,None,28.140661700163037,None,28.140661700163037,None,28.140661700163037,None,28.140661700163037,None,28.140661700163037,None,a,001,5,2020_Jun_26_1640,pAdaptTest5,2020.1.3,60.03723511115066,
2,2,12,,,,,0,11,11,11,,,,,,,,,,,,,"[1, 1, 1, 1, 1, 1, 1, 1, 1, 1]",50,,,,,,,,,"[0.23828125, 0.23828125, 0.23828125, 0.23828125, 0.23828125, 0.23828125, 0.23828125, 0.23828125, 0.23828125, 0.23828125]","[0.057291666666666664, 0.057291666666666664, 0.057291666666666664, 0.057291666666666664, 0.057291666666666664, 0.057291666666666664, 0.057291666666666664, 0.057291666666666664, 0.057291666666666664, 0.057291666666666664]","[0, 0, 0, 0, 0, 0, 0, 0, 0, 0]","[0, 0, 0, 0, 0, 0, 0, 0, 0, 0]","[0, 0, 0, 0, 0, 0, 0, 0, 0, 0]","[0.007372100139036775, 0.019171199994161725, 0.04093070002272725, 0.058810400078073144, 0.07514660013839602, 0.09178440016694367, 0.10831789998337626, 0.12499199993908405, 0.14163279999047518, 0.15886300010606647]",28.323642800096422,None,28.323642800096422,None,28.323642800096422,None,28.323642800096422,None,28.323642800096422,None,28.323642800096422,None,a,001,5,2020_Jun_26_1640,pAdaptTest5,2020.1.3,60.03723511115066,
2,2,13,,,,,0,12,12,12,,,,,,,,,,,,,"[1, 1, 1, 1, 1, 1, 1]",40,,,,,,,,,"[0.23828125, 0.23828125, 0.23828125, 0.23828125, 0.23828125, 0.23828125, 0.23828125]","[0.057291666666666664, 0.057291666666666664, 0.057291666666666664, 0.057291666666666664, 0.057291666666666664, 0.057291666666666664, 0.057291666666666664]","[0, 0, 0, 0, 0, 0, 0]","[0, 0, 0, 0, 0, 0, 0]","[0, 0, 0, 0, 0, 0, 0]","[0.007942300057038665, 0.019569000229239464, 0.0414408000651747, 0.05922010005451739, 0.07548360014334321, 0.092028200160712, 0.10870680003426969]",28.49024650012143,None,28.49024650012143,None,28.49024650012143,None,28.49024650012143,None,28.49024650012143,None,28.49024650012143,None,a,001,5,2020_Jun_26_1640,pAdaptTest5,2020.1.3,60.03723511115066,
2,2,14,,,,,0,13,13,13,,,,,,,,,,,,,"[1, 1, 1, 1, 1, 1, 1, 1]",50,,,,,,,,,"[0.23828125, 0.23828125, 0.23828125, 0.23828125, 0.23828125, 0.23828125, 0.23828125, 0.23828125]","[0.057291666666666664, 0.057291666666666664, 0.057291666666666664, 0.057291666666666664, 0.057291666666666664, 0.057291666666666664, 0.057291666666666664, 0.057291666666666664]","[0, 0, 0, 0, 0, 0, 0, 0]","[0, 0, 0, 0, 0, 0, 0, 0]","[0, 0, 0, 0, 0, 0, 0, 0]","[0.007960999850183725, 0.018652200000360608, 0.042494599940255284, 0.060814299853518605, 0.07667310000397265, 0.0932761998847127, 0.1099827999714762, 0.1277807999867946]",28.60529060009867,None,28.60529060009867,None,28.60529060009867,None,28.60529060009867,None,28.60529060009867,None,28.60529060009867,None,a,001,5,2020_Jun_26_1640,pAdaptTest5,2020.1.3,60.03723511115066,
2,2,15,,,,,0,14,14,14,,,,,,,,,,,,,"[1, 1, 1, 1, 1, 1, 1]",40,,,,,,,,,"[0.23828125, 0.23828125, 0.23828125, 0.23828125, 0.23828125, 0.23828125, 0.23828125]","[0.057291666666666664, 0.057291666666666664, 0.057291666666666664, 0.057291666666666664, 0.057291666666666664, 0.057291666666666664, 0.057291666666666664]","[0, 0, 0, 0, 0, 0, 0]","[0, 0, 0, 0, 0, 0, 0]","[0, 0, 0, 0, 0, 0, 0]","[0.007534800097346306, 0.018993099918588996, 0.04030989995226264, 0.05770880007185042, 0.07460539997555315, 0.09097720007412136, 0.10760980006307364]",28.740647100144997,None,28.740647100144997,None,28.740647100144997,None,28.740647100144997,None,28.740647100144997,None,28.740647100144997,None,a,001,5,2020_Jun_26_1640,pAdaptTest5,2020.1.3,60.03723511115066,
2,2,16,,,,,0,15,15,15,,,,,,,,,,,,,"[1, 1, 1, 1, 1, 1, 1]",50,,,,,,,,,"[0.23828125, 0.23828125, 0.23828125, 0.23828125, 0.23828125, 0.23828125, 0.23828125]","[0.057291666666666664, 0.057291666666666664, 0.057291666666666664, 0.057291666666666664, 0.057291666666666664, 0.057291666666666664, 0.057291666666666664]","[0, 0, 0, 0, 0, 0, 0]","[0, 0, 0, 0, 0, 0, 0]","[0, 0, 0, 0, 0, 0, 0]","[0.008326400071382523, 0.020032400032505393, 0.04241080000065267, 0.06017230008728802, 0.07654349994845688, 0.09313609986566007, 0.10976939997635782]",28.856336100026965,None,28.856336100026965,None,28.856336100026965,None,28.856336100026965,None,28.856336100026965,None,28.856336100026965,None,a,001,5,2020_Jun_26_1640,pAdaptTest5,2020.1.3,60.03723511115066,
2,2,17,,,,,0,16,16,16,,,,,,,,,,,,,"[1, 1, 1, 1, 1, 1]",40,,,,,,,,,"[0.23828125, 0.23828125, 0.23828125, 0.23828125, 0.23828125, 0.23828125]","[0.057291666666666664, 0.057291666666666664, 0.057291666666666664, 0.057291666666666664, 0.057291666666666664, 0.057291666666666664]","[0, 0, 0, 0, 0, 0]","[0, 0, 0, 0, 0, 0]","[0, 0, 0, 0, 0, 0]","[0.008555799955502152, 0.02017659996636212, 0.04278829996474087, 0.05973109998740256, 0.07662929990328848, 0.0935859999153763]",28.97300110012293,None,28.97300110012293,None,28.97300110012293,None,28.97300110012293,None,28.97300110012293,None,28.97300110012293,None,a,001,5,2020_Jun_26_1640,pAdaptTest5,2020.1.3,60.03723511115066,
2,2,18,,,,,0,17,17,17,,,,,,,,,,,,,"[1, 1, 1, 1, 1, 1, 1]",50,,,,,,,,,"[0.23828125, 0.23828125, 0.23828125, 0.23828125, 0.23828125, 0.23828125, 0.23828125]","[0.057291666666666664, 0.057291666666666664, 0.057291666666666664, 0.057291666666666664, 0.057291666666666664, 0.057291666666666664, 0.057291666666666664]","[0, 0, 0, 0, 0, 0, 0]","[0, 0, 0, 0, 0, 0, 0]","[0, 0, 0, 0, 0, 0, 0]","[0.008072499884292483, 0.020186299923807383, 0.041220600018277764, 0.05862269992940128, 0.07581459986977279, 0.09209030005149543, 0.10932420007884502]",29.07403380004689,None,29.07403380004689,None,29.07403380004689,None,29.07403380004689,None,29.07403380004689,None,29.07403380004689,None,a,001,5,2020_Jun_26_1640,pAdaptTest5,2020.1.3,60.03723511115066,
2,2,19,,,,,0,18,18,18,,,,,,,,,,,,,"[1, 1, 1, 1, 1, 1, 1]",40,,,,,,,,,"[0.23828125, 0.23828125, 0.23828125, 0.23828125, 0.23828125, 0.23828125, 0.23828125]","[0.057291666666666664, 0.057291666666666664, 0.057291666666666664, 0.057291666666666664, 0.057291666666666664, 0.057291666666666664, 0.057291666666666664]","[0, 0, 0, 0, 0, 0, 0]","[0, 0, 0, 0, 0, 0, 0]","[0, 0, 0, 0, 0, 0, 0]","[0.007794199977070093, 0.019837900064885616, 0.04081999999471009, 0.05824650009162724, 0.07485640002414584, 0.09163170005194843, 0.10862620011903346]",29.190808900166303,None,29.190808900166303,None,29.190808900166303,None,29.190808900166303,None,29.190808900166303,None,29.190808900166303,None,a,001,5,2020_Jun_26_1640,pAdaptTest5,2020.1.3,60.03723511115066,
2,2,20,,,,,0,19,19,19,,,,,,,,,,,,,"[1, 1, 1, 1, 1, 1, 1, 1]",50,,,,,,,,,"[0.23828125, 0.23828125, 0.23828125, 0.23828125, 0.23828125, 0.23828125, 0.23828125, 0.23828125]","[0.057291666666666664, 0.057291666666666664, 0.057291666666666664, 0.057291666666666664, 0.057291666666666664, 0.057291666666666664, 0.057291666666666664, 0.057291666666666664]","[0, 0, 0, 0, 0, 0, 0, 0]","[0, 0, 0, 0, 0, 0, 0, 0]","[0, 0, 0, 0, 0, 0, 0, 0]","[0.007500800071284175, 0.019263300113379955, 0.042056099977344275, 0.05949919996783137, 0.0760308001190424, 0.09285939997062087, 0.10937710013240576, 0.12646759999915957]",29.305527300108224,None,29.305527300108224,None,29.305527300108224,None,29.305527300108224,None,29.305527300108224,None,29.305527300108224,None,a,001,5,2020_Jun_26_1640,pAdaptTest5,2020.1.3,60.03723511115066,
2,2,21,,,,,0,20,20,20,,,,,,,,,,,,,"[1, 1, 1, 1, 1, 1, 1]",40,,,,,,,,,"[0.23828125, 0.23828125, 0.23828125, 0.23828125, 0.23828125, 0.23828125, 0.23828125]","[0.057291666666666664, 0.057291666666666664, 0.057291666666666664, 0.057291666666666664, 0.057291666666666664, 0.057291666666666664, 0.057291666666666664]","[0, 0, 0, 0, 0, 0, 0]","[0, 0, 0, 0, 0, 0, 0]","[0, 0, 0, 0, 0, 0, 0]","[0.008145400090143085, 0.019873900106176734, 0.041599800111725926, 0.059372000163421035, 0.07558090006932616, 0.09211289999075234, 0.10925590014085174]",29.44051260012202,None,29.44051260012202,None,29.44051260012202,None,29.44051260012202,None,29.44051260012202,None,29.44051260012202,None,a,001,5,2020_Jun_26_1640,pAdaptTest5,2020.1.3,60.03723511115066,
2,2,22,,,,,0,21,21,21,,,,,,,,,,,,,"[1, 1, 1, 1, 1, 1, 1]",50,,,,,,,,,"[0.23828125, 0.23828125, 0.23828125, 0.23828125, 0.23828125, 0.23828125, 0.23828125]","[0.057291666666666664, 0.057291666666666664, 0.057291666666666664, 0.057291666666666664, 0.057291666666666664, 0.057291666666666664, 0.057291666666666664]","[0, 0, 0, 0, 0, 0, 0]","[0, 0, 0, 0, 0, 0, 0]","[0, 0, 0, 0, 0, 0, 0]","[0.00801529991440475, 0.020016799913719296, 0.041081300005316734, 0.05840589990839362, 0.07573250005953014, 0.09196770004928112, 0.10849240003153682]",29.557682499988005,None,29.557682499988005,None,29.557682499988005,None,29.557682499988005,None,29.557682499988005,None,29.557682499988005,None,a,001,5,2020_Jun_26_1640,pAdaptTest5,2020.1.3,60.03723511115066,
2,2,23,,,,,0,22,22,22,,,,,,,,,,,,,"[1, 1, 1, 1, 1, 1, 1, 1]",40,,,,,,,,,"[0.23828125, 0.23828125, 0.23828125, 0.23828125, 0.23828125, 0.23828125, 0.23828125, 0.23828125]","[0.057291666666666664, 0.057291666666666664, 0.057291666666666664, 0.057291666666666664, 0.057291666666666664, 0.057291666666666664, 0.057291666666666664, 0.057291666666666664]","[0, 0, 0, 0, 0, 0, 0, 0]","[0, 0, 0, 0, 0, 0, 0, 0]","[0, 0, 0, 0, 0, 0, 0, 0]","[0.00813270010985434, 0.02025220007635653, 0.04144910001195967, 0.058901699958369136, 0.07602869998663664, 0.09210789995267987, 0.1088875001296401, 0.12597170006483793]",29.673814099980518,None,29.673814099980518,None,29.673814099980518,None,29.673814099980518,None,29.673814099980518,None,29.673814099980518,None,a,001,5,2020_Jun_26_1640,pAdaptTest5,2020.1.3,60.03723511115066,
2,2,24,,,,,0,23,23,23,,,,,,,,,,,,,"[1, 1, 1, 1, 1, 1, 1, 1]",50,,,,,,,,,"[0.23828125, 0.23828125, 0.23828125, 0.23828125, 0.23828125, 0.23828125, 0.23828125, 0.23828125]","[0.057291666666666664, 0.057291666666666664, 0.057291666666666664, 0.057291666666666664, 0.057291666666666664, 0.057291666666666664, 0.057291666666666664, 0.057291666666666664]","[0, 0, 0, 0, 0, 0, 0, 0]","[0, 0, 0, 0, 0, 0, 0, 0]","[0, 0, 0, 0, 0, 0, 0, 0]","[0.007670900085940957, 0.019861300010234118, 0.0409143001306802, 0.05872349999845028, 0.07504240004345775, 0.09199360013008118, 0.10829730005934834, 0.12546130013652146]",29.807276100153103,None,29.807276100153103,None,29.807276100153103,None,29.807276100153103,None,29.807276100153103,None,29.807276100153103,None,a,001,5,2020_Jun_26_1640,pAdaptTest5,2020.1.3,60.03723511115066,
2,2,25,,,,,0,24,24,24,,,,,,,,,,,,,"[1, 1, 1, 1, 1, 1, 1]",40,,,,,,,,,"[0.23828125, 0.23828125, 0.23828125, 0.23828125, 0.23828125, 0.23828125, 0.23828125]","[0.057291666666666664, 0.057291666666666664, 0.057291666666666664, 0.057291666666666664, 0.057291666666666664, 0.057291666666666664, 0.057291666666666664]","[0, 0, 0, 0, 0, 0, 0]","[0, 0, 0, 0, 0, 0, 0]","[0, 0, 0, 0, 0, 0, 0]","[0.008576400112360716, 0.020035200053825974, 0.04145070002414286, 0.05947190010920167, 0.07532520010136068, 0.09194000018760562, 0.10908500012010336]",29.9403600001242,None,29.9403600001242,None,29.9403600001242,None,29.9403600001242,None,29.9403600001242,None,29.9403600001242,None,a,001,5,2020_Jun_26_1640,pAdaptTest5,2020.1.3,60.03723511115066,
2,2,26,,,,,0,25,25,25,,,,,,,,,,,,,"[1, 1, 1, 1, 1, 1, 1, 1]",50,,,,,,,,,"[0.23828125, 0.23828125, 0.23828125, 0.23828125, 0.23828125, 0.23828125, 0.23828125, 0.23828125]","[0.057291666666666664, 0.057291666666666664, 0.057291666666666664, 0.057291666666666664, 0.057291666666666664, 0.057291666666666664, 0.057291666666666664, 0.057291666666666664]","[0, 0, 0, 0, 0, 0, 0, 0]","[0, 0, 0, 0, 0, 0, 0, 0]","[0, 0, 0, 0, 0, 0, 0, 0]","[0.007596899988129735, 0.019123299978673458, 0.041635300032794476, 0.05880020000040531, 0.07589640002697706, 0.0922624000813812, 0.10878850007429719, 0.1254602000117302]",30.055929200025275,None,30.055929200025275,None,30.055929200025275,None,30.055929200025275,None,30.055929200025275,None,30.055929200025275,None,a,001,5,2020_Jun_26_1640,pAdaptTest5,2020.1.3,60.03723511115066,
2,2,27,,,,,0,26,26,26,,,,,,,,,,,,,"[1, 1, 1, 1, 1, 1, 1]",40,,,,,,,,,"[0.23828125, 0.23828125, 0.23828125, 0.23828125, 0.23828125, 0.23828125, 0.23828125]","[0.057291666666666664, 0.057291666666666664, 0.057291666666666664, 0.057291666666666664, 0.057291666666666664, 0.057291666666666664, 0.057291666666666664]","[0, 0, 0, 0, 0, 0, 0]","[0, 0, 0, 0, 0, 0, 0]","[0, 0, 0, 0, 0, 0, 0]","[0.007886300096288323, 0.019238099921494722, 0.0422821999527514, 0.06010539992712438, 0.07637819997034967, 0.09303870005533099, 0.11019430006854236]",30.18842130014673,None,30.18842130014673,None,30.18842130014673,None,30.18842130014673,None,30.18842130014673,None,30.18842130014673,None,a,001,5,2020_Jun_26_1640,pAdaptTest5,2020.1.3,60.03723511115066,
2,2,28,,,,,0,27,27,27,,,,,,,,,,,,,"[1, 1, 1, 1, 1, 1, 1, 1]",50,,,,,,,,,"[0.23828125, 0.23828125, 0.23828125, 0.23828125, 0.23828125, 0.23828125, 0.23828125, 0.23828125]","[0.057291666666666664, 0.057291666666666664, 0.057291666666666664, 0.057291666666666664, 0.057291666666666664, 0.057291666666666664, 0.057291666666666664, 0.057291666666666664]","[0, 0, 0, 0, 0, 0, 0, 0]","[0, 0, 0, 0, 0, 0, 0, 0]","[0, 0, 0, 0, 0, 0, 0, 0]","[0.0081472999881953, 0.020091499900445342, 0.041642499854788184, 0.05903879995457828, 0.07589889992959797, 0.09234179998748004, 0.10911279986612499, 0.1259051999077201]",30.306594100082293,None,30.306594100082293,None,30.306594100082293,None,30.306594100082293,None,30.306594100082293,None,30.306594100082293,None,a,001,5,2020_Jun_26_1640,pAdaptTest5,2020.1.3,60.03723511115066,
2,2,29,,,,,0,28,28,28,,,,,,,,,,,,,"[1, 1, 1, 1, 1, 1, 1, 1]",40,,,,,,,,,"[0.23828125, 0.23828125, 0.23828125, 0.23828125, 0.23828125, 0.23828125, 0.23828125, 0.23828125]","[0.057291666666666664, 0.057291666666666664, 0.057291666666666664, 0.057291666666666664, 0.057291666666666664, 0.057291666666666664, 0.057291666666666664, 0.057291666666666664]","[0, 0, 0, 0, 0, 0, 0, 0]","[0, 0, 0, 0, 0, 0, 0, 0]","[0, 0, 0, 0, 0, 0, 0, 0]","[0.007488999981433153, 0.019047799985855818, 0.04223489994183183, 0.059981999918818474, 0.07610800000838935, 0.09275369998067617, 0.10945790004916489, 0.1262095000129193]",30.43852600012906,None,30.43852600012906,None,30.43852600012906,None,30.43852600012906,None,30.43852600012906,None,30.43852600012906,None,a,001,5,2020_Jun_26_1640,pAdaptTest5,2020.1.3,60.03723511115066,
2,2,30,,,,,0,29,29,29,,,,,,,,,,,,,"[1, 1, 1, 1, 1, 1, 1]",50,,,,,,,,,"[0.23828125, 0.23828125, 0.23828125, 0.23828125, 0.23828125, 0.23828125, 0.23828125]","[0.057291666666666664, 0.057291666666666664, 0.057291666666666664, 0.057291666666666664, 0.057291666666666664, 0.057291666666666664, 0.057291666666666664]","[0, 0, 0, 0, 0, 0, 0]","[0, 0, 0, 0, 0, 0, 0]","[0, 0, 0, 0, 0, 0, 0]","[0.007335100090131164, 0.01823829999193549, 0.042207600083202124, 0.05985420010983944, 0.07607510010711849, 0.09275690000504255, 0.11001840000972152]",30.571819599950686,None,30.571819599950686,None,30.571819599950686,None,30.571819599950686,None,30.571819599950686,None,30.571819599950686,None,a,001,5,2020_Jun_26_1640,pAdaptTest5,2020.1.3,60.03723511115066,
2,2,31,,,,,0,30,30,30,,,,,,,,,,,,,"[1, 1, 1, 1, 1, 1, 1, 1]",40,,,,,,,,,"[0.23828125, 0.23828125, 0.23828125, 0.23828125, 0.23828125, 0.23828125, 0.23828125, 0.23828125]","[0.057291666666666664, 0.057291666666666664, 0.057291666666666664, 0.057291666666666664, 0.057291666666666664, 0.057291666666666664, 0.057291666666666664, 0.057291666666666664]","[0, 0, 0, 0, 0, 0, 0, 0]","[0, 0, 0, 0, 0, 0, 0, 0]","[0, 0, 0, 0, 0, 0, 0, 0]","[0.009351599961519241, 0.02091860002838075, 0.04167179996147752, 0.05923929996788502, 0.07540440000593662, 0.09205069998279214, 0.10865679988637567, 0.1256724998820573]",30.691148299956694,None,30.691148299956694,None,30.691148299956694,None,30.691148299956694,None,30.691148299956694,None,30.691148299956694,None,a,001,5,2020_Jun_26_1640,pAdaptTest5,2020.1.3,60.03723511115066,
2,2,32,,,,,0,31,31,31,,,,,,,,,,,,,"[1, 1, 1, 1, 1, 1, 1, 1]",50,,,,,,,,,"[0.23828125, 0.23828125, 0.23828125, 0.23828125, 0.23828125, 0.23828125, 0.23828125, 0.23828125]","[0.057291666666666664, 0.057291666666666664, 0.057291666666666664, 0.057291666666666664, 0.057291666666666664, 0.057291666666666664, 0.057291666666666664, 0.057291666666666664]","[0, 0, 0, 0, 0, 0, 0, 0]","[0, 0, 0, 0, 0, 0, 0, 0]","[0, 0, 0, 0, 0, 0, 0, 0]","[0.007502799853682518, 0.01935560000129044, 0.04182969988323748, 0.05943249980919063, 0.07574040000326931, 0.09230929985642433, 0.10909899999387562, 0.1261822998058051]",30.822379800025374,None,30.822379800025374,None,30.822379800025374,None,30.822379800025374,None,30.822379800025374,None,30.822379800025374,None,a,001,5,2020_Jun_26_1640,pAdaptTest5,2020.1.3,60.03723511115066,
2,2,33,,,,,0,32,32,32,,,,,,,,,,,,,"[1, 1, 1, 1, 1, 1, 1, 1]",40,,,,,,,,,"[0.23828125, 0.23828125, 0.23828125, 0.23828125, 0.23828125, 0.23828125, 0.23828125, 0.23828125]","[0.057291666666666664, 0.057291666666666664, 0.057291666666666664, 0.057291666666666664, 0.057291666666666664, 0.057291666666666664, 0.057291666666666664, 0.057291666666666664]","[0, 0, 0, 0, 0, 0, 0, 0]","[0, 0, 0, 0, 0, 0, 0, 0]","[0, 0, 0, 0, 0, 0, 0, 0]","[0.00773270009085536, 0.019217199878767133, 0.041299100033938885, 0.05854739993810654, 0.07554579991847277, 0.0917847000528127, 0.10843589995056391, 0.12551969988271594]",30.95614210003987,None,30.95614210003987,None,30.95614210003987,None,30.95614210003987,None,30.95614210003987,None,30.95614210003987,None,a,001,5,2020_Jun_26_1640,pAdaptTest5,2020.1.3,60.03723511115066,
2,2,34,,,,,0,33,33,33,,,,,,,,,,,,,"[1, 1, 1, 1, 1, 1, 1]",50,,,,,,,,,"[0.23828125, 0.23828125, 0.23828125, 0.23828125, 0.23828125, 0.23828125, 0.23828125]","[0.057291666666666664, 0.057291666666666664, 0.057291666666666664, 0.057291666666666664, 0.057291666666666664, 0.057291666666666664, 0.057291666666666664]","[0, 0, 0, 0, 0, 0, 0]","[0, 0, 0, 0, 0, 0, 0]","[0, 0, 0, 0, 0, 0, 0]","[0.007654299959540367, 0.019746100064367056, 0.041078400099650025, 0.05905929999426007, 0.07486840011551976, 0.09153830003924668, 0.1082262999843806]",31.090239400044084,None,31.090239400044084,None,31.090239400044084,None,31.090239400044084,None,31.090239400044084,None,31.090239400044084,None,a,001,5,2020_Jun_26_1640,pAdaptTest5,2020.1.3,60.03723511115066,
2,2,35,,,,,0,34,34,34,,,,,,,,,,,,,"[1, 1, 1, 1, 1, 1, 1, 1]",40,,,,,,,,,"[0.23828125, 0.23828125, 0.23828125, 0.23828125, 0.23828125, 0.23828125, 0.23828125, 0.23828125]","[0.057291666666666664, 0.057291666666666664, 0.057291666666666664, 0.057291666666666664, 0.057291666666666664, 0.057291666666666664, 0.057291666666666664, 0.057291666666666664]","[0, 0, 0, 0, 0, 0, 0, 0]","[0, 0, 0, 0, 0, 0, 0, 0]","[0, 0, 0, 0, 0, 0, 0, 0]","[0.008039699867367744, 0.019646799890324473, 0.041634999914094806, 0.05935749993659556, 0.07544829999096692, 0.09213069989345968, 0.10876749991439283, 0.12583639984950423]",31.206379600102082,None,31.206379600102082,None,31.206379600102082,None,31.206379600102082,None,31.206379600102082,None,31.206379600102082,None,a,001,5,2020_Jun_26_1640,pAdaptTest5,2020.1.3,60.03723511115066,
2,2,36,,,,,0,35,35,35,,,,,,,,,,,,,"[1, 1, 1, 1, 1, 1, 1]",50,,,,,,,,,"[0.23828125, 0.23828125, 0.23828125, 0.23828125, 0.23828125, 0.23828125, 0.23828125]","[0.057291666666666664, 0.057291666666666664, 0.057291666666666664, 0.057291666666666664, 0.057291666666666664, 0.057291666666666664, 0.057291666666666664]","[0, 0, 0, 0, 0, 0, 0]","[0, 0, 0, 0, 0, 0, 0]","[0, 0, 0, 0, 0, 0, 0]","[0.007506299996748567, 0.01912399986758828, 0.04142239992506802, 0.058652899926528335, 0.07523149996995926, 0.09185680001974106, 0.1085657998919487]",31.339347000001,None,31.339347000001,None,31.339347000001,None,31.339347000001,None,31.339347000001,None,31.339347000001,None,a,001,5,2020_Jun_26_1640,pAdaptTest5,2020.1.3,60.03723511115066,
2,2,37,,,,,0,36,36,36,,,,,,,,,,,,,"[1, 1, 1, 1, 1, 1, 1, 1, 1, 1]",40,,,,,,,,,"[0.23828125, 0.23828125, 0.23828125, 0.23828125, 0.23828125, 0.23828125, 0.23828125, 0.23828125, 0.23828125, 0.23828125]","[0.057291666666666664, 0.057291666666666664, 0.057291666666666664, 0.057291666666666664, 0.057291666666666664, 0.057291666666666664, 0.057291666666666664, 0.057291666666666664, 0.057291666666666664, 0.057291666666666664]","[0, 0, 0, 0, 0, 0, 0, 0, 0, 0]","[0, 0, 0, 0, 0, 0, 0, 0, 0, 0]","[0, 0, 0, 0, 0, 0, 0, 0, 0, 0]","[0.007997200125828385, 0.019239800050854683, 0.04236770002171397, 0.05961950006894767, 0.07664780016057193, 0.09287420008331537, 0.10969240008853376, 0.12615100014954805, 0.14283470017835498, 0.15949380001984537]",31.45496689993888,None,31.45496689993888,None,31.45496689993888,None,31.45496689993888,None,31.45496689993888,None,31.45496689993888,None,a,001,5,2020_Jun_26_1640,pAdaptTest5,2020.1.3,60.03723511115066,
2,2,38,,,,,0,37,37,37,,,,,,,,,,,,,"[1, 1, 1, 1, 1, 1]",50,,,,,,,,,"[0.23828125, 0.23828125, 0.23828125, 0.23828125, 0.23828125, 0.23828125]","[0.057291666666666664, 0.057291666666666664, 0.057291666666666664, 0.057291666666666664, 0.057291666666666664, 0.057291666666666664]","[0, 0, 0, 0, 0, 0]","[0, 0, 0, 0, 0, 0]","[0, 0, 0, 0, 0, 0]","[0.007738600019365549, 0.019476300105452538, 0.042313000187277794, 0.058920000214129686, 0.0756917002145201, 0.09264730010181665]",31.62259569996968,None,31.62259569996968,None,31.62259569996968,None,31.62259569996968,None,31.62259569996968,None,31.62259569996968,None,a,001,5,2020_Jun_26_1640,pAdaptTest5,2020.1.3,60.03723511115066,
2,2,39,,,,,0,38,38,38,,,,,,,,,,,,,"[1, 1, 1, 1, 1, 1, 1, 1, 1]",40,,,,,,,,,"[0.23828125, 0.23828125, 0.23828125, 0.23828125, 0.23828125, 0.23828125, 0.23828125, 0.23828125, 0.23828125]","[0.057291666666666664, 0.057291666666666664, 0.057291666666666664, 0.057291666666666664, 0.057291666666666664, 0.057291666666666664, 0.057291666666666664, 0.057291666666666664, 0.057291666666666664]","[0, 0, 0, 0, 0, 0, 0, 0, 0]","[0, 0, 0, 0, 0, 0, 0, 0, 0]","[0, 0, 0, 0, 0, 0, 0, 0, 0]","[0.007524499902501702, 0.019209400052204728, 0.041587499901652336, 0.058808499947190285, 0.075311099877581, 0.0919947000220418, 0.10857439995743334, 0.12526929983869195, 0.1419450999237597]",31.722322900081053,None,31.722322900081053,None,31.722322900081053,None,31.722322900081053,None,31.722322900081053,None,31.722322900081053,None,a,001,5,2020_Jun_26_1640,pAdaptTest5,2020.1.3,60.03723511115066,
2,2,40,,,,,0,39,39,39,,,,,,,,,,,,,"[1, 1, 1, 1, 1, 1, 1, 1]",50,,,,,,,,,"[0.23828125, 0.23828125, 0.23828125, 0.23828125, 0.23828125, 0.23828125, 0.23828125, 0.23828125]","[0.057291666666666664, 0.057291666666666664, 0.057291666666666664, 0.057291666666666664, 0.057291666666666664, 0.057291666666666664, 0.057291666666666664, 0.057291666666666664]","[0, 0, 0, 0, 0, 0, 0, 0]","[0, 0, 0, 0, 0, 0, 0, 0]","[0, 0, 0, 0, 0, 0, 0, 0]","[0.0075882000382989645, 0.019347900059074163, 0.042585300048813224, 0.06009250017814338, 0.07622280018404126, 0.09289610013365746, 0.10960149997845292, 0.12668890017084777]",31.871465099975467,None,31.871465099975467,None,31.871465099975467,None,31.871465099975467,None,31.871465099975467,None,31.871465099975467,None,a,001,5,2020_Jun_26_1640,pAdaptTest5,2020.1.3,60.03723511115066,
2,2,41,,,,,0,40,40,40,,,,,,,,,,,,,"[1, 1, 1, 1, 1, 1, 1, 1]",40,,,,,,,,,"[0.23828125, 0.23828125, 0.23828125, 0.23828125, 0.23828125, 0.23828125, 0.23828125, 0.23828125]","[0.057291666666666664, 0.057291666666666664, 0.057291666666666664, 0.057291666666666664, 0.057291666666666664, 0.057291666666666664, 0.057291666666666664, 0.057291666666666664]","[0, 0, 0, 0, 0, 0, 0, 0]","[0, 0, 0, 0, 0, 0, 0, 0]","[0, 0, 0, 0, 0, 0, 0, 0]","[0.007822300074622035, 0.019823499955236912, 0.04117819992825389, 0.05818270007148385, 0.07489700010046363, 0.09149469994008541, 0.10817490005865693, 0.12525120005011559]",32.006589400116354,None,32.006589400116354,None,32.006589400116354,None,32.006589400116354,None,32.006589400116354,None,32.006589400116354,None,a,001,5,2020_Jun_26_1640,pAdaptTest5,2020.1.3,60.03723511115066,
2,2,42,,,,,0,41,41,41,,,,,,,,,,,,,"[1, 1, 1, 1, 1, 1, 1, 1, 1, 1, 1, 1, 1, 1, 1, 1, 1, 1, 1, 1, 1, 1, 1, 1, 1, 1, 1, 1, 1]",50,,,,,,,,,"[0.23828125, 0.23828125, 0.23828125, 0.23828125, 0.23828125, 0.23828125, 0.23828125, 0.23828125, 0.23828125, 0.23828125, 0.23828125, 0.23828125, 0.23828125, 0.23828125, 0.23828125, 0.23828125, 0.23828125, 0.23828125, 0.23828125, 0.23828125, 0.23828125, 0.23828125, 0.23828125, 0.23828125, 0.23828125, 0.23828125, 0.23828125, 0.23828125, 0.23828125]","[0.057291666666666664, 0.057291666666666664, 0.057291666666666664, 0.057291666666666664, 0.057291666666666664, 0.057291666666666664, 0.057291666666666664, 0.057291666666666664, 0.057291666666666664, 0.057291666666666664, 0.057291666666666664, 0.057291666666666664, 0.057291666666666664, 0.057291666666666664, 0.057291666666666664, 0.057291666666666664, 0.057291666666666664, 0.057291666666666664, 0.057291666666666664, 0.057291666666666664, 0.057291666666666664, 0.057291666666666664, 0.057291666666666664, 0.057291666666666664, 0.057291666666666664, 0.057291666666666664, 0.057291666666666664, 0.057291666666666664, 0.057291666666666664]","[0, 0, 0, 0, 0, 0, 0, 0, 0, 0, 0, 0, 0, 0, 0, 0, 0, 0, 0, 0, 0, 0, 0, 0, 0, 0, 0, 0, 0]","[0, 0, 0, 0, 0, 0, 0, 0, 0, 0, 0, 0, 0, 0, 0, 0, 0, 0, 0, 0, 0, 0, 0, 0, 0, 0, 0, 0, 0]","[0, 0, 0, 0, 0, 0, 0, 0, 0, 0, 0, 0, 0, 0, 0, 0, 0, 0, 0, 0, 0, 0, 0, 0, 0, 0, 0, 0, 0]","[0.007912000175565481, 0.019758500158786774, 0.041617600014433265, 0.058587900130078197, 0.07524180016480386, 0.0920532001182437, 0.10864870017394423, 0.12528570019640028, 0.14194470015354455, 0.15868530003353953, 0.17529799998737872, 0.19191749999299645, 0.2086691001895815, 0.22526430012658238, 0.24190290016122162, 0.2586511999834329, 0.2752278000116348, 0.2919489999767393, 0.3086092001758516, 0.32522960007190704, 0.3419918001163751, 0.358681800076738, 0.37528120004571974, 0.39195060008205473, 0.408569100080058, 0.42531169997528195, 0.4419712000526488, 0.45862020016647875, 0.47560190013609827]",32.13941329997033,None,32.13941329997033,None,32.13941329997033,None,32.13941329997033,None,32.13941329997033,None,32.13941329997033,None,a,001,5,2020_Jun_26_1640,pAdaptTest5,2020.1.3,60.03723511115066,
2,2,43,,,,,0,42,42,42,,,,,,,,,,,,,"[1, 1, 1, 1, 1, 1, 1, 1, 1, 1, 1, 1]",40,,,,,,,,,"[0.23828125, 0.23828125, 0.23828125, 0.23828125, 0.23828125, 0.23828125, 0.23828125, 0.23828125, 0.23828125, 0.23828125, 0.23828125, 0.23828125]","[0.057291666666666664, 0.057291666666666664, 0.057291666666666664, 0.057291666666666664, 0.057291666666666664, 0.057291666666666664, 0.057291666666666664, 0.057291666666666664, 0.057291666666666664, 0.057291666666666664, 0.057291666666666664, 0.057291666666666664]","[0, 0, 0, 0, 0, 0, 0, 0, 0, 0, 0, 0]","[0, 0, 0, 0, 0, 0, 0, 0, 0, 0, 0, 0]","[0, 0, 0, 0, 0, 0, 0, 0, 0, 0, 0, 0]","[0.007676899898797274, 0.019338399870321155, 0.041161099914461374, 0.05819169990718365, 0.07490290002897382, 0.0916208999697119, 0.10817319992929697, 0.12492659990675747, 0.1415096998680383, 0.15823119995184243, 0.17493400000967085, 0.19221409992314875]",32.62262420007028,None,32.62262420007028,None,32.62262420007028,None,32.62262420007028,None,32.62262420007028,None,32.62262420007028,None,a,001,5,2020_Jun_26_1640,pAdaptTest5,2020.1.3,60.03723511115066,
2,2,44,,,,,0,43,43,43,,,,,,,,,,,,,"[1, 1, 1, 1, 1, 1, 1, 1, 1, 1, 1, 1, 1, 1, 1, 1, 1, 1, 1, 1, 1, 1, 1, 1, 1]",50,,,,,,,,,"[0.23828125, 0.23828125, 0.23828125, 0.23828125, 0.23828125, 0.23828125, 0.23828125, 0.23828125, 0.23828125, 0.23828125, 0.23828125, 0.23828125, 0.23828125, 0.23828125, 0.23828125, 0.23828125, 0.23828125, 0.23828125, 0.23828125, 0.23828125, 0.23828125, 0.23828125, 0.23828125, 0.23828125, 0.23828125]","[0.057291666666666664, 0.057291666666666664, 0.057291666666666664, 0.057291666666666664, 0.057291666666666664, 0.057291666666666664, 0.057291666666666664, 0.057291666666666664, 0.057291666666666664, 0.057291666666666664, 0.057291666666666664, 0.057291666666666664, 0.057291666666666664, 0.057291666666666664, 0.057291666666666664, 0.057291666666666664, 0.057291666666666664, 0.057291666666666664, 0.057291666666666664, 0.057291666666666664, 0.057291666666666664, 0.057291666666666664, 0.057291666666666664, 0.057291666666666664, 0.057291666666666664]","[0, 0, 0, 0, 0, 0, 0, 0, 0, 0, 0, 0, 0, 0, 0, 0, 0, 0, 0, 0, 0, 0, 0, 0, 0]","[0, 0, 0, 0, 0, 0, 0, 0, 0, 0, 0, 0, 0, 0, 0, 0, 0, 0, 0, 0, 0, 0, 0, 0, 0]","[0, 0, 0, 0, 0, 0, 0, 0, 0, 0, 0, 0, 0, 0, 0, 0, 0, 0, 0, 0, 0, 0, 0, 0, 0]","[0.009080300107598305, 0.02212630002759397, 0.04112210008315742, 0.05805839993990958, 0.07471149996854365, 0.09148239996284246, 0.10811040014959872, 0.12477950006723404, 0.14130949997343123, 0.15803229995071888, 0.17471690010279417, 0.19143610005266964, 0.20848609996028244, 0.22463200008496642, 0.2413745999801904, 0.25806730007752776, 0.27464079996570945, 0.29138970002532005, 0.30818880000151694, 0.32482940005138516, 0.3414718001149595, 0.3581634000875056, 0.3748298999853432, 0.3914650999940932, 0.40849400009028614]",32.82489010016434,None,32.82489010016434,None,32.82489010016434,None,32.82489010016434,None,32.82489010016434,None,32.82489010016434,None,a,001,5,2020_Jun_26_1640,pAdaptTest5,2020.1.3,60.03723511115066,
2,2,45,,,,,0,44,44,44,,,,,,,,,,,,,"[1, 1, 1, 1, 1, 1, 1, 1, 1, 1, 1, 1, 1, 1, 1, 1, 1, 1, 1, 1, 1, 1, 1, 1, 1, 1]",40,,,,,,,,,"[0.23828125, 0.23828125, 0.23828125, 0.23828125, 0.23828125, 0.23828125, 0.23828125, 0.23828125, 0.23828125, 0.23828125, 0.23828125, 0.23828125, 0.23828125, 0.23828125, 0.23828125, 0.23828125, 0.23828125, 0.23828125, 0.23828125, 0.23828125, 0.23828125, 0.23828125, 0.23828125, 0.23828125, 0.23828125, 0.23828125]","[0.057291666666666664, 0.057291666666666664, 0.057291666666666664, 0.057291666666666664, 0.057291666666666664, 0.057291666666666664, 0.057291666666666664, 0.057291666666666664, 0.057291666666666664, 0.057291666666666664, 0.057291666666666664, 0.057291666666666664, 0.057291666666666664, 0.057291666666666664, 0.057291666666666664, 0.057291666666666664, 0.057291666666666664, 0.057291666666666664, 0.057291666666666664, 0.057291666666666664, 0.057291666666666664, 0.057291666666666664, 0.057291666666666664, 0.057291666666666664, 0.057291666666666664, 0.057291666666666664]","[0, 0, 0, 0, 0, 0, 0, 0, 0, 0, 0, 0, 0, 0, 0, 0, 0, 0, 0, 0, 0, 0, 0, 0, 0, 0]","[0, 0, 0, 0, 0, 0, 0, 0, 0, 0, 0, 0, 0, 0, 0, 0, 0, 0, 0, 0, 0, 0, 0, 0, 0, 0]","[0, 0, 0, 0, 0, 0, 0, 0, 0, 0, 0, 0, 0, 0, 0, 0, 0, 0, 0, 0, 0, 0, 0, 0, 0, 0]","[0.007851300062611699, 0.020653099985793233, 0.04141229996457696, 0.058619200019165874, 0.07524510007351637, 0.09191350010223687, 0.10877900011837482, 0.12517590005882084, 0.1418879001867026, 0.15857960004359484, 0.1752349000889808, 0.1919277000706643, 0.2086343001574278, 0.22513939999043941, 0.24187909997999668, 0.2585623001214117, 0.27524049999192357, 0.2918707001954317, 0.3085643001832068, 0.3251724001020193, 0.3418400001246482, 0.3585336001124233, 0.37517190002836287, 0.3918346001300961, 0.40849500009790063, 0.42556900018826127]",33.24014970008284,None,33.24014970008284,None,33.24014970008284,None,33.24014970008284,None,33.24014970008284,None,33.24014970008284,None,a,001,5,2020_Jun_26_1640,pAdaptTest5,2020.1.3,60.03723511115066,
2,2,46,,,,,0,45,45,45,,,,,,,,,,,,,"[1, 1, 1, 1, 1, 1, 1, 1, 1, 1, 1, 1, 1, 1, 1, 1, 1, 1, 1, 1, 1, 1, 1, 1, 1, 1]",50,,,,,,,,,"[0.23828125, 0.23828125, 0.23828125, 0.23828125, 0.23828125, 0.23828125, 0.23828125, 0.23828125, 0.23828125, 0.23828125, 0.23828125, 0.23828125, 0.23828125, 0.23828125, 0.23828125, 0.23828125, 0.23828125, 0.23828125, 0.23828125, 0.23828125, 0.23828125, 0.23828125, 0.23828125, 0.23828125, 0.23828125, 0.23828125]","[0.057291666666666664, 0.057291666666666664, 0.057291666666666664, 0.057291666666666664, 0.057291666666666664, 0.057291666666666664, 0.057291666666666664, 0.057291666666666664, 0.057291666666666664, 0.057291666666666664, 0.057291666666666664, 0.057291666666666664, 0.057291666666666664, 0.057291666666666664, 0.057291666666666664, 0.057291666666666664, 0.057291666666666664, 0.057291666666666664, 0.057291666666666664, 0.057291666666666664, 0.057291666666666664, 0.057291666666666664, 0.057291666666666664, 0.057291666666666664, 0.057291666666666664, 0.057291666666666664]","[0, 0, 0, 0, 0, 0, 0, 0, 0, 0, 0, 0, 0, 0, 0, 0, 0, 0, 0, 0, 0, 0, 0, 0, 0, 0]","[0, 0, 0, 0, 0, 0, 0, 0, 0, 0, 0, 0, 0, 0, 0, 0, 0, 0, 0, 0, 0, 0, 0, 0, 0, 0]","[0, 0, 0, 0, 0, 0, 0, 0, 0, 0, 0, 0, 0, 0, 0, 0, 0, 0, 0, 0, 0, 0, 0, 0, 0, 0]","[0.00803919997997582, 0.0206774000544101, 0.04064809996634722, 0.05814699991606176, 0.07442339998669922, 0.09095970005728304, 0.10769250011071563, 0.1243495000526309, 0.14098810008727014, 0.15770819992758334, 0.17431179992854595, 0.19113219995051622, 0.20761790010146797, 0.22433919995091856, 0.24097159993834794, 0.257622400065884, 0.2743299000430852, 0.2910211000125855, 0.30765420012176037, 0.3243476999923587, 0.34096989990212023, 0.35765550006181, 0.3742506999988109, 0.3909378999378532, 0.4076153999194503, 0.42497890000231564]",33.67451889999211,None,33.67451889999211,None,33.67451889999211,None,33.67451889999211,None,33.67451889999211,None,33.67451889999211,None,a,001,5,2020_Jun_26_1640,pAdaptTest5,2020.1.3,60.03723511115066,
2,2,47,,,,,0,46,46,46,,,,,,,,,,,,,"[1, 1, 1, 1, 1, 1, 1, 1, 1, 1, 1, 1, 1, 1, 1, 1, 1, 1, 1, 1, 1, 1, 1, 1, 1, 1, 1, 1, 1]",40,,,,,,,,,"[0.23828125, 0.23828125, 0.23828125, 0.23828125, 0.23828125, 0.23828125, 0.23828125, 0.23828125, 0.23828125, 0.23828125, 0.23828125, 0.23828125, 0.23828125, 0.23828125, 0.23828125, 0.23828125, 0.23828125, 0.23828125, 0.23828125, 0.23828125, 0.23828125, 0.23828125, 0.23828125, 0.23828125, 0.23828125, 0.23828125, 0.23828125, 0.23828125, 0.23828125]","[0.057291666666666664, 0.057291666666666664, 0.057291666666666664, 0.057291666666666664, 0.057291666666666664, 0.057291666666666664, 0.057291666666666664, 0.057291666666666664, 0.057291666666666664, 0.057291666666666664, 0.057291666666666664, 0.057291666666666664, 0.057291666666666664, 0.057291666666666664, 0.057291666666666664, 0.057291666666666664, 0.057291666666666664, 0.057291666666666664, 0.057291666666666664, 0.057291666666666664, 0.057291666666666664, 0.057291666666666664, 0.057291666666666664, 0.057291666666666664, 0.057291666666666664, 0.057291666666666664, 0.057291666666666664, 0.057291666666666664, 0.057291666666666664]","[0, 0, 0, 0, 0, 0, 0, 0, 0, 0, 0, 0, 0, 0, 0, 0, 0, 0, 0, 0, 0, 0, 0, 0, 0, 0, 0, 0, 0]","[0, 0, 0, 0, 0, 0, 0, 0, 0, 0, 0, 0, 0, 0, 0, 0, 0, 0, 0, 0, 0, 0, 0, 0, 0, 0, 0, 0, 0]","[0, 0, 0, 0, 0, 0, 0, 0, 0, 0, 0, 0, 0, 0, 0, 0, 0, 0, 0, 0, 0, 0, 0, 0, 0, 0, 0, 0, 0]","[0.00871339999139309, 0.020964300027117133, 0.04105390002951026, 0.058645099867135286, 0.0749988998286426, 0.09140000003390014, 0.10806619981303811, 0.12465709983371198, 0.1413328000344336, 0.1580353998579085, 0.17483769985847175, 0.19129160000011325, 0.20802409993484616, 0.22467399993911386, 0.24136210000142455, 0.2580021999310702, 0.27468589995987713, 0.2913448999170214, 0.3080415998119861, 0.32468730001710355, 0.3412464000284672, 0.35794489993713796, 0.3746722999494523, 0.39150039991363883, 0.4079589999746531, 0.4246653998270631, 0.4413281998131424, 0.4579602999147028, 0.4750598999671638]",34.10770809999667,None,34.10770809999667,None,34.10770809999667,None,34.10770809999667,None,34.10770809999667,None,34.10770809999667,None,a,001,5,2020_Jun_26_1640,pAdaptTest5,2020.1.3,60.03723511115066,
2,2,48,,,,,0,47,47,47,,,,,,,,,,,,,"[1, 1, 1, 1, 1, 1, 1, 1, 1, 1, 1, 1, 1, 1, 1, 1, 1, 1, 1, 1, 1, 1, 1, 1, 1, 1, 1, 1, 1, 1, 1, 1, 1, 1, 1, 1, 1, 1, 1, 1, 1, 1, 1]",50,,,,,,,,,"[0.23828125, 0.23828125, 0.23828125, 0.23828125, 0.23828125, 0.23828125, 0.23828125, 0.23828125, 0.23828125, 0.23828125, 0.23828125, 0.23828125, 0.23828125, 0.23828125, 0.23828125, 0.23828125, 0.23828125, 0.23828125, 0.23828125, 0.23828125, 0.23828125, 0.23828125, 0.23828125, 0.23828125, 0.23828125, 0.23828125, 0.23828125, 0.23828125, 0.23828125, 0.23828125, 0.23828125, 0.23828125, 0.23828125, 0.23828125, 0.23828125, 0.23828125, 0.23828125, 0.23828125, 0.23828125, 0.23828125, 0.23828125, 0.23828125, 0.23828125]","[0.057291666666666664, 0.057291666666666664, 0.057291666666666664, 0.057291666666666664, 0.057291666666666664, 0.057291666666666664, 0.057291666666666664, 0.057291666666666664, 0.057291666666666664, 0.057291666666666664, 0.057291666666666664, 0.057291666666666664, 0.057291666666666664, 0.057291666666666664, 0.057291666666666664, 0.057291666666666664, 0.057291666666666664, 0.057291666666666664, 0.057291666666666664, 0.057291666666666664, 0.057291666666666664, 0.057291666666666664, 0.057291666666666664, 0.057291666666666664, 0.057291666666666664, 0.057291666666666664, 0.057291666666666664, 0.057291666666666664, 0.057291666666666664, 0.057291666666666664, 0.057291666666666664, 0.057291666666666664, 0.057291666666666664, 0.057291666666666664, 0.057291666666666664, 0.057291666666666664, 0.057291666666666664, 0.057291666666666664, 0.057291666666666664, 0.057291666666666664, 0.057291666666666664, 0.057291666666666664, 0.057291666666666664]","[0, 0, 0, 0, 0, 0, 0, 0, 0, 0, 0, 0, 0, 0, 0, 0, 0, 0, 0, 0, 0, 0, 0, 0, 0, 0, 0, 0, 0, 0, 0, 0, 0, 0, 0, 0, 0, 0, 0, 0, 0, 0, 0]","[0, 0, 0, 0, 0, 0, 0, 0, 0, 0, 0, 0, 0, 0, 0, 0, 0, 0, 0, 0, 0, 0, 0, 0, 0, 0, 0, 0, 0, 0, 0, 0, 0, 0, 0, 0, 0, 0, 0, 0, 0, 0, 0]","[0, 0, 0, 0, 0, 0, 0, 0, 0, 0, 0, 0, 0, 0, 0, 0, 0, 0, 0, 0, 0, 0, 0, 0, 0, 0, 0, 0, 0, 0, 0, 0, 0, 0, 0, 0, 0, 0, 0, 0, 0, 0, 0]","[0.007553900126367807, 0.01917810016311705, 0.041040100157260895, 0.058608800172805786, 0.0748431000392884, 0.09146580006927252, 0.1081399000249803, 0.12481440021656454, 0.14151220000348985, 0.15816630003973842, 0.17481500003486872, 0.1915065001230687, 0.2081550001166761, 0.22481660009361804, 0.24151120008900762, 0.2580635000485927, 0.27475810004398227, 0.29140530014410615, 0.3081102999858558, 0.3248447000514716, 0.34143290016800165, 0.35806070012040436, 0.3747549999970943, 0.39142540004104376, 0.40834630001336336, 0.42486120015382767, 0.44138990016654134, 0.4580924001056701, 0.4747084002010524, 0.4913426002021879, 0.5080378002021462, 0.5247261000331491, 0.5413691001012921, 0.558030600193888, 0.5747231000568718, 0.5913427001796663, 0.6080279999878258, 0.6247179000638425, 0.6413637001533061, 0.658029800048098, 0.6746539000887424, 0.6913205999881029, 0.7084199001546949]",34.58890730002895,None,34.58890730002895,None,34.58890730002895,None,34.58890730002895,None,34.58890730002895,None,34.58890730002895,None,a,001,5,2020_Jun_26_1640,pAdaptTest5,2020.1.3,60.03723511115066,
2,2,49,,,,,0,48,48,48,,,,,,,,,,,,,"[1, 1, 1, 1, 1, 1, 1, 1, 1, 1, 1, 1, 1]",40,,,,,,,,,"[0.23828125, 0.23828125, 0.23828125, 0.23828125, 0.23828125, 0.23828125, 0.23828125, 0.23828125, 0.23828125, 0.23828125, 0.23828125, 0.23828125, 0.23828125]","[0.057291666666666664, 0.057291666666666664, 0.057291666666666664, 0.057291666666666664, 0.057291666666666664, 0.057291666666666664, 0.057291666666666664, 0.057291666666666664, 0.057291666666666664, 0.057291666666666664, 0.057291666666666664, 0.057291666666666664, 0.057291666666666664]","[0, 0, 0, 0, 0, 0, 0, 0, 0, 0, 0, 0, 0]","[0, 0, 0, 0, 0, 0, 0, 0, 0, 0, 0, 0, 0]","[0, 0, 0, 0, 0, 0, 0, 0, 0, 0, 0, 0, 0]","[0.007416700012981892, 0.018848000094294548, 0.041289899963885546, 0.058120000176131725, 0.07477209996432066, 0.09147990006022155, 0.10808979999274015, 0.12486530002206564, 0.14141850010491908, 0.15807310002855957, 0.17474350007250905, 0.19141310011036694, 0.2084925000090152]",35.30544769996777,None,35.30544769996777,None,35.30544769996777,None,35.30544769996777,None,35.30544769996777,None,35.30544769996777,None,a,001,5,2020_Jun_26_1640,pAdaptTest5,2020.1.3,60.03723511115066,
